File: charts/20230801/TGA/INSATURADAS/STD 5A.txt
23/05/2023 21:00:42
User name: Gabs
Comments: Zeólitas - Mariana
Number	time(s)	mass(g)	Relative_mass(%)	Sample_T(C)	PV(C)	SV(C)
1.0	0.0	0.1647	100.0	23.5	60.0	60.0
5.0	6.001	0.164	99.57498	26.0	63.0	60.0
9.0	14.001	0.1633	99.14997	31.5	76.0	61.0
13.0	22.001	0.1633	99.14997	36.75	91.0	62.0
17.0	30.001	0.1633	99.14997	41.25	102.0	62.0
21.0	38.001	0.1633	99.14997	45.0	108.0	63.0
25.0	46.001	0.1633	99.14997	48.0	114.0	63.0
29.0	54.005	0.1633	99.14997	51.0	118.0	63.0
33.0	62.009	0.1632	99.08925	53.25	122.0	63.0
37.0	70.009	0.1632	99.08925	55.25	123.0	63.0
41.0	78.009	0.1629	98.9071	57.0	124.0	63.0
45.0	86.009	0.1632	99.08925	58.75	125.0	63.0
49.0	94.009	0.1632	99.08925	60.25	127.0	63.0
53.0	102.009	0.163	98.96782	61.5	127.0	63.0
57.0	110.009	0.163	98.96782	62.75	127.0	63.0
62.0	120.009	0.163	98.96782	64.25	127.0	63.0
67.0	130.009	0.1629	98.9071	65.25	127.0	63.0
71.0	138.009	0.1629	98.9071	66.25	127.0	63.0
77.0	150.009	0.1628	98.84639	67.25	127.0	63.0
84.0	164.009	0.1627	98.78567	68.25	125.0	63.0
93.0	182.009	0.1626	98.72495	69.25	124.0	63.0
108.0	212.009	0.1624	98.60352	70.25	123.0	63.0
309.0	614.009	0.1608	97.63206	63.25	102.0	84.0
518.0	1032.009	0.1599	97.08561	71.0	119.0	119.0
526.0	1048.009	0.1598	97.02489	72.0	120.0	120.0
533.0	1062.009	0.1598	97.02489	73.0	122.0	121.0
543.0	1082.009	0.1598	97.02489	74.0	123.0	123.0
551.0	1098.009	0.1597	96.96418	75.0	124.0	124.0
556.0	1108.009	0.1596	96.90346	76.0	127.0	125.0
565.0	1126.009	0.1596	96.90346	77.0	128.0	127.0
574.0	1144.009	0.1596	96.90346	78.0	128.0	128.0
581.0	1158.009	0.1595	96.84274	79.0	131.0	129.0
587.0	1170.009	0.1594	96.78203	80.0	132.0	130.0
595.0	1186.009	0.1594	96.78203	81.0	133.0	132.0
606.0	1208.009	0.1593	96.72131	82.0	133.0	134.0
612.0	1220.009	0.1592	96.6606	83.25	136.0	135.0
618.0	1232.009	0.1592	96.6606	84.25	137.0	136.0
625.0	1246.009	0.1591	96.59988	85.25	138.0	137.0
635.0	1266.009	0.1591	96.59988	86.25	138.0	138.0
642.0	1280.009	0.159	96.53916	87.25	140.0	140.0
649.0	1294.009	0.1589	96.47845	88.25	141.0	141.0
658.0	1312.009	0.1588	96.41773	89.25	142.0	142.0
664.0	1324.009	0.1587	96.35701	90.25	143.0	143.0
671.0	1338.009	0.1587	96.35701	91.25	145.0	144.0
681.0	1358.009	0.1586	96.2963	92.25	146.0	146.0
688.0	1372.009	0.1585	96.23558	93.25	147.0	147.0
693.0	1382.009	0.1585	96.23558	94.25	148.0	148.0
699.0	1394.009	0.1584	96.17486	95.25	150.0	149.0
708.0	1412.009	0.1583	96.11415	96.25	151.0	151.0
717.0	1430.009	0.1582	96.05343	97.0	152.0	152.0
722.0	1440.009	0.1582	96.05343	98.25	153.0	153.0
727.0	1450.009	0.1581	95.99271	99.25	155.0	154.0
736.0	1468.009	0.158	95.932	100.25	156.0	155.0
746.0	1488.009	0.1579	95.87128	101.25	156.0	157.0
751.0	1498.009	0.1578	95.81056	102.25	158.0	158.0
756.0	1508.009	0.1578	95.81056	103.25	159.0	158.0
762.0	1520.009	0.1577	95.74985	104.25	161.0	159.0
769.0	1534.009	0.1577	95.74985	105.25	162.0	161.0
782.0	1560.009	0.1575	95.62842	106.25	162.0	163.0
787.0	1570.009	0.1574	95.5677	107.5	163.0
792.0	1580.009	0.1573	95.50698	108.5	166.0	164.0
797.0	1590.009	0.1572	95.44627	109.5	167.0	165.0
805.0	1606.009	0.1572	95.44627	110.5	168.0	167.0
819.0	1634.009	0.157	95.32483	111.5	168.0	169.0
824.0	1644.009	0.1569	95.26412	112.75	171.0	170.0
828.0	1652.009	0.1568	95.2034	113.75	172.0	170.0
834.0	1664.009	0.1568	95.2034	114.75	173.0	171.0
845.0	1686.009	0.1567	95.14268	115.75	173.0	173.0
851.0	1698.009	0.1566	95.08197	116.75	174.0	174.0
856.0	1708.009	0.1565	95.02125	117.75	175.0	175.0
862.0	1720.009	0.1564	94.96053	119.0	178.0	176.0
874.0	1744.009	0.1563	94.89982	120.0	178.0	178.0
881.0	1758.009	0.1561	94.77838	121.0	179.0	179.0
886.0	1768.009	0.156	94.71767	122.0	180.0	180.0
892.0	1780.009	0.1559	94.65695	123.0	182.0	181.0
902.0	1800.009	0.1558	94.59624	124.0	183.0	183.0
911.0	1818.009	0.1557	94.53552	125.0	184.0	184.0
915.0	1826.009	0.1556	94.4748	126.0	185.0	185.0
919.0	1834.009	0.1555	94.41409	127.0	186.0	186.0
925.0	1846.009	0.1554	94.35337	128.0	188.0	187.0
932.0	1860.009	0.1554	94.35337	129.0	189.0	188.0
946.0	1888.009	0.1552	94.23194	130.0	189.0	190.0
952.0	1900.009	0.155	94.1105	131.25	191.0	191.0
956.0	1908.009	0.155	94.1105	132.25	192.0	192.0
961.0	1918.009	0.1549	94.04979	133.25	194.0	193.0
971.0	1938.009	0.1548	93.98907	134.25	195.0	194.0
983.0	1962.009	0.1546	93.86764	135.25	195.0	196.0
987.0	1970.009	0.1545	93.80692	136.25	197.0	197.0
991.0	1978.009	0.1544	93.74621	137.25	199.0	198.0
997.0	1990.009	0.1543	93.68549	138.25	200.0	199.0
1006.0	2008.009	0.1542	93.62477	139.25	200.0	200.0
1014.0	2024.009	0.154	93.50334	140.25	201.0	201.0
1021.0	2038.009	0.1539	93.44262	141.25	202.0	202.0
1026.0	2048.009	0.1538	93.38191	142.25	204.0	203.0
1032.0	2060.009	0.1537	93.32119	143.25	206.0	204.0
1043.0	2082.009	0.1536	93.26047	144.25	206.0	206.0
1050.0	2096.009	0.1534	93.13904	145.25	207.0	207.0
1056.0	2108.009	0.1533	93.07832	146.5	208.0	208.0
1062.0	2120.009	0.1532	93.01761	147.5	210.0	209.0
1069.0	2134.009	0.1531	92.95689	148.5	210.0	210.0
1076.0	2148.009	0.1529	92.83546	149.5	213.0	212.0
1086.0	2168.009	0.1528	92.77474	150.5	213.0	213.0
1092.0	2180.009	0.1526	92.65331	151.5	214.0	214.0
1099.0	2194.009	0.1525	92.59259	152.5	216.0	215.0
1104.0	2204.009	0.1524	92.53188	153.5	216.0	216.0
1111.0	2218.009	0.1523	92.47116	154.75	218.0	217.0
1118.0	2232.009	0.1521	92.34973	155.75	219.0	219.0
1124.0	2244.009	0.152	92.28901	156.75	221.0	220.0
1135.0	2266.009	0.1518	92.16758	157.75	221.0	221.0
1143.0	2282.009	0.1516	92.04614	159.0	223.0	223.0
1147.0	2290.009	0.1516	92.04614	160.0	224.0	223.0
1152.0	2300.009	0.1515	91.98543	161.0	225.0	224.0
1159.0	2314.009	0.1513	91.864	162.0	226.0	225.0
1166.0	2328.009	0.1512	91.80328	163.0	226.0	227.0
1172.0	2340.009	0.151	91.68185	164.0	229.0	228.0
1182.0	2360.009	0.1509	91.62113	165.0	229.0	229.0
1190.0	2376.009	0.1506	91.43898	166.0	230.0	231.0
1194.0	2384.009	0.1506	91.43898	167.0	231.0	231.0
1199.0	2394.009	0.1505	91.37826	168.0	232.0	232.0
1206.0	2408.009	0.1503	91.25683	169.0	233.0	233.0
1212.0	2420.009	0.1502	91.19611	170.0	234.0	234.0
1218.0	2432.009	0.15	91.07468	171.0	235.0	235.0
1226.0	2448.009	0.1499	91.01396	172.0	237.0	237.0
1235.0	2466.009	0.1497	90.89253	173.0	237.0	238.0
1240.0	2476.009	0.1495	90.7711	174.0	239.0	239.0
1246.0	2488.009	0.1494	90.71038	175.0	240.0	240.0
1252.0	2500.009	0.1492	90.58895	176.25	241.0	241.0
1260.0	2516.009	0.149	90.46752	177.25	242.0	242.0
1266.0	2528.009	0.1489	90.4068	178.25	243.0	243.0
1273.0	2542.009	0.1487	90.28537	179.25	245.0	244.0
1282.0	2560.009	0.1485	90.16393	180.25	246.0	246.0
1289.0	2574.009	0.1483	90.0425	181.25	247.0	247.0
1294.0	2584.009	0.1482	89.98179	182.25	248.0	248.0
1300.0	2596.009	0.148	89.86035	183.25	249.0	249.0
1305.0	2606.009	0.1479	89.79964	184.25	250.0	250.0
1314.0	2624.009	0.1477	89.6782	185.5	251.0	251.0
1319.0	2634.009	0.1475	89.55677	186.5	252.0	252.0
1326.0	2648.009	0.1473	89.43534	187.5	254.0	253.0
1338.0	2672.009	0.147	89.25319	188.5	254.0	255.0
1343.0	2682.009	0.1469	89.19247	189.5	256.0	256.0
1348.0	2692.009	0.1467	89.07104	190.5	257.0	257.0
1353.0	2702.009	0.1466	89.01032	191.5	258.0	258.0
1359.0	2714.009	0.1464	88.88889	192.5	259.0	259.0
1366.0	2728.009	0.1462	88.76746	193.5	259.0	260.0
1371.0	2738.009	0.146	88.64602	194.5	261.0	261.0
1376.0	2748.009	0.1459	88.58531	195.5	263.0	261.0
1386.0	2768.009	0.1456	88.40316	196.5	263.0	263.0
1394.0	2784.009	0.1454	88.28172	197.5	264.0	264.0
1399.0	2794.009	0.1452	88.16029	198.5	265.0	265.0
1404.0	2804.009	0.1451	88.09957	199.5	266.0	266.0
1410.0	2816.009	0.1449	87.97814	200.5	267.0	267.0
1418.0	2832.009	0.1446	87.79599	201.75	268.0	268.0
1423.0	2842.009	0.1445	87.73528	202.75	269.0	269.0
1429.0	2854.009	0.1443	87.61384	203.75	270.0	270.0
1436.0	2868.009	0.1441	87.49241	204.75	271.0	271.0
1441.0	2878.009	0.1439	87.37098	205.75	273.0	272.0
1448.0	2892.009	0.1437	87.24954	206.75	274.0	273.0
1459.0	2914.009	0.1433	87.00668	207.75	274.0	275.0
1465.0	2926.009	0.1431	86.88525	209.25	276.0	276.0
1471.0	2938.009	0.1429	86.76381	210.5	277.0	277.0
1479.0	2954.009	0.1427	86.64238	211.75	278.0	279.0
1487.0	2970.009	0.1424	86.46023	213.0	280.0	280.0
1493.0	2982.009	0.1422	86.3388	214.0	281.0	281.0
1499.0	2994.009	0.142	86.21736	215.0	283.0	282.0
1505.0	3006.009	0.1418	86.09593	216.0	283.0	283.0
1515.0	3026.009	0.1415	85.91378	217.0	284.0	284.0
1521.0	3038.009	0.1412	85.73163	218.0	285.0	285.0
1526.0	3048.009	0.141	85.6102	219.0	286.0	286.0
1532.0	3060.009	0.1409	85.54948	220.25	287.0	287.0
1539.0	3074.009	0.1406	85.36733	221.25	288.0	288.0
1545.0	3086.009	0.1404	85.2459	222.5	289.0	289.0
1551.0	3098.009	0.1402	85.12447	223.5	290.0	290.0
1556.0	3108.009	0.14	85.00304	224.5	291.0	291.0
1569.0	3134.009	0.1396	84.76017	225.5	293.0	293.0
1575.0	3146.009	0.1394	84.63874	226.5	294.0	294.0
1579.0	3154.009	0.1392	84.5173	227.75	295.0	295.0
1583.0	3162.009	0.1391	84.45659	228.75	296.0	296.0
1589.0	3174.009	0.1389	84.33515	229.75	297.0	297.0
1596.0	3188.009	0.1386	84.15301	230.75	298.0	298.0
1601.0	3198.009	0.1384	84.03157	231.75	299.0	299.0
1606.0	3208.009	0.1383	83.97086	232.75	300.0	300.0
1612.0	3220.009	0.1381	83.84942	233.75	301.0	301.0
1618.0	3232.009	0.1379	83.72799	234.75	302.0	302.0
1623.0	3242.009	0.1377	83.60656	235.75	302.0	302.0
1634.0	3264.009	0.1373	83.36369	236.75	304.0	304.0
1641.0	3278.009	0.1371	83.24226	237.75	305.0	305.0
1646.0	3288.009	0.1369	83.12083	238.75	306.0	306.0
1651.0	3298.009	0.1367	82.99939	239.75	307.0	307.0
1655.0	3306.009	0.1366	82.93868	240.75	308.0	308.0
1662.0	3320.009	0.1364	82.81724	241.75	309.0	309.0
1669.0	3334.009	0.1361	82.63509	242.75	310.0	310.0
1674.0	3344.009	0.136	82.57438	243.75	311.0	311.0
1679.0	3354.009	0.1358	82.45294	244.75	312.0	312.0
1686.0	3368.009	0.1356	82.33151	246.0	313.0	313.0
1692.0	3380.009	0.1354	82.21008	247.0	314.0	314.0
1698.0	3392.009	0.1352	82.08865	248.0	316.0	315.0
1709.0	3414.009	0.1349	81.9065	249.0	316.0	317.0
1715.0	3426.009	0.1346	81.72435	250.0	317.0	318.0
1719.0	3434.009	0.1345	81.66363	251.0	318.0	318.0
1723.0	3442.009	0.1344	81.60291	252.0	319.0	319.0
1730.0	3456.009	0.1342	81.48148	253.0	320.0	320.0
1737.0	3470.009	0.134	81.36005	254.25	321.0	321.0
1742.0	3480.009	0.1338	81.23862	255.25	322.0	322.0
1747.0	3490.009	0.1337	81.1779	256.25	323.0	323.0
1753.0	3502.009	0.1335	81.05647	257.25	324.0	324.0
1759.0	3514.009	0.1334	80.99575	258.25	325.0	325.0
1764.0	3524.009	0.1332	80.87432	259.25	326.0	326.0
1770.0	3536.009	0.133	80.75288	260.25	327.0	327.0
1775.0	3546.009	0.1329	80.69217	261.25	329.0	328.0
1786.0	3568.009	0.1327	80.57073	262.25	329.0	329.0
1793.0	3582.009	0.1325	80.4493	263.5	330.0	331.0
1799.0	3594.009	0.1323	80.32787	264.75	332.0	332.0
1804.0	3604.009	0.1322	80.26715	265.75	333.0	332.0
1811.0	3618.009	0.1321	80.20644	266.75	333.0	334.0
1816.0	3628.009	0.132	80.14572	267.75	334.0	334.0
1821.0	3638.009	0.1318	80.02429	268.75	335.0	335.0
1826.0	3648.009	0.1317	79.96357	269.75	336.0	336.0
1831.0	3658.009	0.1316	79.90285	270.75	337.0	337.0
1837.0	3670.009	0.1315	79.84214	271.75	338.0	338.0
1844.0	3684.009	0.1314	79.78142	272.75	339.0	339.0
1850.0	3696.009	0.1313	79.7207	273.75	339.0	340.0
1854.0	3704.009	0.1311	79.59927	274.75	341.0	341.0
1858.0	3712.009	0.1311	79.59927	275.75	343.0	341.0
1874.0	3744.009	0.1308	79.41712	276.75	343.0	344.0
1879.0	3754.009	0.1307	79.35641	278.0	344.0	345.0
1883.0	3762.009	0.1306	79.29569	279.25	346.0	346.0
1888.0	3772.009	0.1305	79.23497	280.25	347.0	346.0
1895.0	3786.009	0.1304	79.17426	281.25	347.0	348.0
1899.0	3794.009	0.1304	79.17426	282.25	348.0	348.0
1905.0	3806.009	0.1303	79.11354	283.25	349.0	349.0
1911.0	3818.009	0.1302	79.05282	284.5	350.0	350.0
1919.0	3834.009	0.1301	78.99211	286.0	351.0	352.0
1926.0	3848.009	0.13	78.93139	287.0	353.0	353.0
1932.0	3860.009	0.1299	78.87067	288.0	354.0	354.0
1937.0	3870.009	0.1298	78.80996	289.0	354.0	355.0
1942.0	3880.009	0.1298	78.80996	290.0	355.0	355.0
1947.0	3890.009	0.1297	78.74924	291.0	356.0	356.0
1952.0	3900.009	0.1296	78.68852	292.0	357.0	357.0
1965.0	3926.009	0.1295	78.62781	293.0	359.0	359.0
1972.0	3940.009	0.1294	78.56709	294.0	360.0	360.0
1976.0	3948.009	0.1293	78.50638	295.25	361.0	361.0
1980.0	3956.009	0.1293	78.50638	296.25	362.0	362.0
1986.0	3968.009	0.1292	78.44566	297.25	363.0	363.0
1993.0	3982.009	0.1292	78.44566	298.25	364.0	364.0
1999.0	3994.009	0.1291	78.38494	299.25	364.0	365.0
2004.0	4004.009	0.1291	78.38494	300.5	366.0	366.0
2008.0	4012.009	0.129	78.32423	301.5	366.0	366.0
2013.0	4022.009	0.1289	78.26351	302.5	367.0	367.0
2021.0	4038.009	0.1289	78.26351	303.5	368.0	369.0
2027.0	4050.009	0.1288	78.20279	304.75	369.0	370.0
2032.0	4060.009	0.1288	78.20279	305.75	370.0	370.0
2037.0	4070.009	0.1287	78.14208	306.75	371.0	371.0
2044.0	4084.009	0.1287	78.14208	307.75	372.0	372.0
2048.0	4092.009	0.1286	78.08136	308.75	373.0	373.0
2054.0	4104.009	0.1286	78.08136	309.75	374.0	374.0
2060.0	4116.009	0.1285	78.02064	310.75	375.0	375.0
2066.0	4128.009	0.1285	78.02064	311.75	377.0	376.0
2074.0	4144.009	0.1284	77.95993	312.75	378.0	377.0
2085.0	4166.009	0.1283	77.89921	313.75	378.0	379.0
2089.0	4174.009	0.1283	77.89921	315.0	379.0	380.0
2095.0	4186.009	0.1283	77.89921	316.5	381.0	381.0
2101.0	4198.009	0.1282	77.83849	317.5	382.0	382.0
2107.0	4210.009	0.1282	77.83849	318.5	382.0	383.0
2112.0	4220.009	0.1281	77.77778	319.5	383.0	384.0
2117.0	4230.009	0.1281	77.77778	320.5	384.0	384.0
2123.0	4242.009	0.1281	77.77778	321.5	385.0	385.0
2128.0	4252.009	0.128	77.71706	322.5	386.0	386.0
2133.0	4262.009	0.128	77.71706	323.5	387.0	387.0
2139.0	4274.009	0.1279	77.65634	324.5	388.0	388.0
2145.0	4286.009	0.1279	77.65634	325.5	389.0	389.0
2151.0	4298.009	0.1279	77.65634	326.5	390.0	390.0
2155.0	4306.009	0.1278	77.59563	327.5	391.0	391.0
2161.0	4318.009	0.1278	77.59563	328.5	392.0	392.0
2168.0	4332.009	0.1277	77.53491	329.5	392.0	393.0
2172.0	4340.009	0.1277	77.53491	330.5	393.0	394.0
2176.0	4348.009	0.1277	77.53491	331.5	395.0	394.0
2183.0	4362.009	0.1276	77.4742	332.75	395.0	395.0
2192.0	4380.009	0.1276	77.4742	333.75	396.0	397.0
2197.0	4390.009	0.1275	77.41348	334.75	398.0	398.0
2206.0	4408.009	0.1275	77.41348	335.75	399.0	399.0
2211.0	4418.009	0.1275	77.41348	336.75	400.0	400.0
2215.0	4426.009	0.1274	77.35276	337.75	401.0	401.0
2220.0	4436.009	0.1274	77.35276	338.75	402.0	402.0
2225.0	4446.009	0.1273	77.29205	339.75	402.0	402.0
2231.0	4458.009	0.1273	77.29205	340.75	404.0	403.0
2238.0	4472.009	0.1273	77.29205	341.75	404.0	405.0
2244.0	4484.009	0.1272	77.23133	343.0	406.0	406.0
2249.0	4494.009	0.1272	77.23133	344.0	407.0	406.0
2255.0	4506.009	0.1272	77.23133	345.0	407.0	407.0
2261.0	4518.009	0.1271	77.17061	346.25	408.0	408.0
2266.0	4528.009	0.1271	77.17061	347.25	409.0	409.0
2272.0	4540.009	0.127	77.1099	348.25	410.0	410.0
2278.0	4552.009	0.127	77.1099	349.25	411.0	411.0
2284.0	4564.009	0.127	77.1099	350.5	412.0	412.0
2289.0	4574.009	0.1269	77.04918	351.5	413.0	413.0
2295.0	4586.009	0.1269	77.04918	352.5	414.0	414.0
2301.0	4598.009	0.1268	76.98846	353.5	415.0	415.0
2307.0	4610.009	0.1268	76.98846	354.5	416.0	416.0
2312.0	4620.009	0.1268	76.98846	355.75	417.0	417.0
2318.0	4632.009	0.1268	76.98846	356.75	418.0	418.0
2323.0	4642.009	0.1267	76.92775	357.75	419.0	419.0
2327.0	4650.009	0.1267	76.92775	358.75	420.0	419.0
2336.0	4668.009	0.1267	76.92775	359.75	420.0	421.0
2340.0	4676.009	0.1266	76.86703	360.75	421.0	421.0
2344.0	4684.009	0.1266	76.86703	361.75	422.0	422.0
2359.0	4714.009	0.1265	76.80631	363.0	424.0	425.0
2364.0	4724.009	0.1265	76.80631	364.25	425.0	425.0
2369.0	4734.009	0.1265	76.80631	365.25	427.0	426.0
2375.0	4746.009	0.1264	76.7456	366.25	427.0	427.0
2381.0	4758.009	0.1264	76.7456	367.25	428.0	428.0
2385.0	4766.009	0.1264	76.7456	368.25	429.0	429.0
2390.0	4776.009	0.1264	76.7456	369.25	430.0	430.0
2396.0	4788.009	0.1263	76.68488	370.25	431.0	431.0
2401.0	4798.009	0.1263	76.68488	371.25	431.0	432.0
2407.0	4810.009	0.1262	76.62417	372.5	433.0	433.0
2413.0	4822.009	0.1262	76.62417	373.5	433.0	434.0
2418.0	4832.009	0.1262	76.62417	374.5	434.0	434.0
2424.0	4844.009	0.1261	76.56345	375.5	435.0	435.0
2430.0	4856.009	0.1261	76.56345	376.5	436.0	436.0
2435.0	4866.009	0.1261	76.56345	377.5	437.0	437.0
2440.0	4876.009	0.126	76.50273	378.5	438.0	438.0
2446.0	4888.009	0.126	76.50273	379.5	439.0	439.0
2451.0	4898.009	0.126	76.50273	380.5	440.0	440.0
2456.0	4908.009	0.1259	76.44202	381.5	441.0	441.0
2463.0	4922.009	0.1259	76.44202	382.75	442.0	442.0
2469.0	4934.009	0.1259	76.44202	383.75	443.0	443.0
2474.0	4944.009	0.1258	76.3813	384.75	444.0	444.0
2481.0	4958.009	0.1258	76.3813	386.0	444.0	445.0
2487.0	4970.009	0.1257	76.32058	387.25	446.0	446.0
2492.0	4980.009	0.1257	76.32058	388.25	447.0	447.0
2499.0	4994.009	0.1257	76.32058	389.25	447.0	448.0
2504.0	5004.009	0.1257	76.32058	390.25	448.0	449.0
2509.0	5014.009	0.1256	76.25987	391.25	449.0	450.0
2514.0	5024.009	0.1256	76.25987	392.25	450.0	450.0
2520.0	5036.009	0.1255	76.19915	393.25	451.0	451.0
2525.0	5046.009	0.1255	76.19915	394.25	452.0	452.0
2531.0	5058.009	0.1255	76.19915	395.25	453.0	453.0
2537.0	5070.009	0.1254	76.13843	396.25	454.0	454.0
2542.0	5080.009	0.1254	76.13843	397.5	455.0	455.0
2548.0	5092.009	0.1254	76.13843	398.5	456.0	456.0
2554.0	5104.009	0.1253	76.07772	399.5	457.0	457.0
2560.0	5116.009	0.1253	76.07772	400.5	458.0	458.0
2565.0	5126.009	0.1253	76.07772	401.5	458.0	459.0
2570.0	5136.009	0.1252	76.017	402.5	461.0	460.0
2586.0	5168.009	0.1252	76.017	404.25	462.0	462.0
2590.0	5176.009	0.1251	75.95628	405.5	464.0	463.0
2598.0	5192.009	0.1251	75.95628	406.5	464.0	464.0
2605.0	5206.009	0.125	75.89557	407.5	465.0	465.0
2610.0	5216.009	0.125	75.89557	408.5	466.0	466.0
2614.0	5224.009	0.125	75.89557	409.5	467.0	467.0
2619.0	5234.009	0.1249	75.83485	410.5	467.0	468.0
2624.0	5244.009	0.1249	75.83485	411.5	468.0	469.0
2629.0	5254.009	0.1249	75.83485	412.5	469.0	469.0
2637.0	5270.009	0.1249	75.83485	413.5	470.0	471.0
2642.0	5280.009	0.1248	75.77413	414.75	471.0	472.0
2649.0	5294.009	0.1248	75.77413	416.0	472.0	473.0
2654.0	5304.009	0.1247	75.71342	417.0	474.0	474.0
2660.0	5316.009	0.1247	75.71342	418.0	474.0	475.0
2666.0	5328.009	0.1247	75.71342	419.0	475.0	476.0
2672.0	5340.009	0.1246	75.6527	420.0	476.0	477.0
2676.0	5348.009	0.1246	75.6527	421.0	477.0	477.0
2682.0	5360.009	0.1246	75.6527	422.25	478.0	478.0
2689.0	5374.009	0.1245	75.59199	423.25	479.0	479.0
2694.0	5384.009	0.1245	75.59199	424.25	480.0	480.0
2698.0	5392.009	0.1245	75.59199	425.25	481.0	481.0
2704.0	5404.009	0.1244	75.53127	426.25	482.0	482.0
2711.0	5418.009	0.1244	75.53127	427.25	483.0	483.0
2716.0	5428.009	0.1243	75.47055	428.25	483.0	484.0
2720.0	5436.009	0.1243	75.47055	429.25	484.0	485.0
2726.0	5448.009	0.1243	75.47055	430.5	486.0	486.0
2734.0	5464.009	0.1242	75.40984	431.5	486.0	487.0
2739.0	5474.009	0.1242	75.40984	432.5	487.0	488.0
2744.0	5484.009	0.1241	75.34912	433.5	488.0	489.0
2748.0	5492.009	0.1241	75.34912	434.5	489.0	489.0
2754.0	5504.009	0.1241	75.34912	435.5	490.0	490.0
2759.0	5514.009	0.124	75.2884	436.5	491.0	491.0
2764.0	5524.009	0.124	75.2884	437.5	492.0	492.0
2770.0	5536.009	0.124	75.2884	438.5	493.0	493.0
2776.0	5548.009	0.1239	75.22769	439.5	494.0	494.0
2782.0	5560.009	0.1239	75.22769	440.5	495.0	495.0
2788.0	5572.009	0.1239	75.22769	441.75	496.0	496.0
2794.0	5584.009	0.1238	75.16697	442.75	497.0	497.0
2801.0	5598.009	0.1238	75.16697	443.75	498.0	498.0
2805.0	5606.009	0.1238	75.16697	444.75	499.0	499.0
2810.0	5616.009	0.1237	75.10625	445.75	499.0	499.0
2817.0	5630.009	0.1237	75.10625	446.75	500.0	501.0
2822.0	5640.009	0.1236	75.04554	447.75	501.0	501.0
2826.0	5648.009	0.1236	75.04554	448.75	502.0	502.0
2832.0	5660.009	0.1236	75.04554	449.75	503.0	503.0
2839.0	5674.009	0.1235	74.98482	450.75	504.0	504.0
2844.0	5684.009	0.1235	74.98482	451.75	505.0	505.0
2849.0	5694.009	0.1234	74.9241	452.75	506.0	506.0
2854.0	5704.009	0.1234	74.9241	453.75	507.0	507.0
2859.0	5714.009	0.1234	74.9241	454.75	508.0	508.0
2866.0	5728.009	0.1233	74.86339	456.0	509.0	509.0
2873.0	5742.009	0.1233	74.86339	457.25	510.0	510.0
2879.0	5754.009	0.1232	74.80267	458.5	511.0	511.0
2884.0	5764.009	0.1232	74.80267	459.5	512.0	512.0
2891.0	5778.009	0.1232	74.80267	460.5	513.0	513.0
2897.0	5790.009	0.1232	74.80267	461.5	514.0	514.0
2902.0	5800.009	0.1231	74.74196	462.5	515.0	515.0
2908.0	5812.009	0.1231	74.74196	463.5	516.0	516.0
2914.0	5824.009	0.123	74.68124	464.5	517.0	517.0
2921.0	5838.009	0.123	74.68124	465.5	518.0	518.0
2926.0	5848.009	0.1229	74.62052	466.5	518.0	519.0
2932.0	5860.009	0.1229	74.62052	467.75	519.0	520.0
2938.0	5872.009	0.1229	74.62052	468.75	520.0	521.0
2942.0	5880.009	0.1228	74.55981	469.75	521.0	521.0
2947.0	5890.009	0.1228	74.55981	470.75	522.0	522.0
2955.0	5906.009	0.1228	74.55981	471.75	523.0	524.0
2961.0	5918.009	0.1227	74.49909	473.0	524.0	525.0
2966.0	5928.009	0.1227	74.49909	474.25	525.0	525.0
2971.0	5938.009	0.1227	74.49909	475.25	526.0	526.0
2979.0	5954.009	0.1226	74.43837	476.25	527.0	528.0
2985.0	5966.009	0.1226	74.43837	477.25	528.0	529.0
2989.0	5974.009	0.1225	74.37766	478.25	529.0	529.0
2995.0	5986.009	0.1225	74.37766	479.5	530.0	530.0
3005.0	6006.009	0.1224	74.31694	480.5	531.0	532.0
3009.0	6014.009	0.1224	74.31694	481.5	532.0	533.0
3013.0	6022.009	0.1224	74.31694	482.5	533.0	533.0
3018.0	6032.009	0.1224	74.31694	483.5	534.0	534.0
3025.0	6046.009	0.1223	74.25622	484.5	534.0	535.0
3030.0	6056.009	0.1223	74.25622	485.5	536.0	536.0
3034.0	6064.009	0.1223	74.25622	486.5	537.0	537.0
3041.0	6078.009	0.1222	74.19551	487.5	538.0	538.0
3048.0	6092.009	0.1222	74.19551	488.5	539.0	539.0
3053.0	6102.009	0.1221	74.13479	489.5	540.0	540.0
3060.0	6116.009	0.1221	74.13479	490.75	540.0	541.0
3065.0	6126.009	0.1221	74.13479	491.75	542.0	542.0
3070.0	6136.009	0.1221	74.13479	492.75	543.0	543.0
3078.0	6152.009	0.122	74.07407	493.75	543.0	544.0
3083.0	6162.009	0.122	74.07407	495.0	545.0	545.0
3088.0	6172.009	0.1219	74.01336	496.0	546.0	546.0
3097.0	6190.009	0.1219	74.01336	497.0	546.0	547.0
3102.0	6200.009	0.1219	74.01336	498.25	548.0	548.0
3108.0	6212.009	0.1218	73.95264	499.25	548.0	549.0
3114.0	6224.009	0.1218	73.95264	500.25	550.0	550.0
3120.0	6236.009	0.1218	73.95264	501.25	551.0	551.0
3125.0	6246.009	0.1217	73.89192	502.25	553.0	552.0
3131.0	6258.009	0.1217	73.89192	503.25	553.0	553.0
3137.0	6270.009	0.1217	73.89192	504.25	553.0	554.0
3141.0	6278.009	0.1216	73.83121	505.25	554.0	554.0
3149.0	6294.009	0.1216	73.83121	506.25	555.0	556.0
3156.0	6308.009	0.1216	73.83121	507.5	557.0	557.0
3163.0	6322.009	0.1215	73.77049	509.0	558.0	558.0
3168.0	6332.009	0.1215	73.77049	510.0	559.0	559.0
3173.0	6342.009	0.1215	73.77049	511.0	560.0	560.0
3182.0	6360.009	0.1215	73.77049	512.0	560.0	561.0
3186.0	6368.009	0.1214	73.70978	513.0	562.0	562.0
3191.0	6378.009	0.1214	73.70978	514.0	563.0	563.0
3204.0	6404.009	0.1214	73.70978	515.25	564.0	565.0
3208.0	6412.009	0.1213	73.64906	516.75	566.0	566.0
3214.0	6424.009	0.1213	73.64906	517.75	566.0	567.0
3218.0	6432.009	0.1212	73.58834	518.75	568.0	567.0
3224.0	6444.009	0.1212	73.58834	519.75	569.0	568.0
3234.0	6464.009	0.1212	73.58834	521.0	569.0	570.0
3238.0	6472.009	0.1212	73.58834	522.0	570.0	571.0
3242.0	6480.009	0.1211	73.52763	523.0	570.0	571.0
3248.0	6492.009	0.1211	73.52763	524.0	572.0	572.0
3257.0	6510.009	0.1211	73.52763	525.0	573.0	574.0
3262.0	6520.009	0.1211	73.52763	526.0	575.0	575.0
3269.0	6534.009	0.1211	73.52763	527.0	576.0	576.0
3275.0	6546.009	0.121	73.46691	528.25	576.0	577.0
3280.0	6556.009	0.121	73.46691	529.25	578.0	578.0
3288.0	6572.009	0.1209	73.40619	530.25	578.0	579.0
3294.0	6584.009	0.1209	73.40619	531.25	580.0	580.0
3298.0	6592.009	0.1209	73.40619	532.25	580.0	581.0
3302.0	6600.009	0.1209	73.40619	533.25	582.0	581.0
3313.0	6622.009	0.1209	73.40619	534.25	582.0	583.0
3317.0	6630.009	0.1208	73.34548	535.5	583.0	584.0
3322.0	6640.009	0.1208	73.34548	536.5	585.0	584.0
3326.0	6648.009	0.1208	73.34548	537.5	585.0	585.0
3333.0	6662.009	0.1208	73.34548	538.5	586.0	586.0
3339.0	6674.009	0.1208	73.34548	539.5	587.0	587.0
3348.0	6692.009	0.1207	73.28476	540.5	588.0	589.0
3354.0	6704.009	0.1207	73.28476	541.5	589.0	590.0
3358.0	6712.009	0.1207	73.28476	542.75	590.0	590.0
3362.0	6720.009	0.1207	73.28476	543.75	592.0	591.0
3372.0	6740.009	0.1206	73.22404	544.75	591.0	593.0
3376.0	6748.009	0.1206	73.22404	545.75	593.0	593.0
3381.0	6758.009	0.1206	73.22404	547.0	594.0	594.0
3389.0	6774.009	0.1206	73.22404	548.0	595.0	596.0
3396.0	6788.009	0.1206	73.22404	549.0	596.0	597.0
3400.0	6796.009	0.1205	73.16333	550.0	597.0	597.0
3405.0	6806.009	0.1205	73.16333	551.0	598.0	598.0
3412.0	6820.009	0.1205	73.16333	552.0	599.0	599.0
3417.0	6830.009	0.1204	73.10261	553.25	599.0	600.0
3421.0	6838.009	0.1204	73.10261	554.75	600.0	601.0
3425.0	6846.009	0.1204	73.10261	556.0	602.0	602.0
3430.0	6856.009	0.1204	73.10261	557.0	603.0	602.0
3440.0	6876.009	0.1203	73.04189	558.0	604.0	604.0
3447.0	6890.009	0.1203	73.04189	559.0	605.0	605.0
3451.0	6898.009	0.1203	73.04189	560.0	606.0	606.0
3459.0	6914.009	0.1203	73.04189	561.0	607.0	607.0
3466.0	6928.009	0.1203	73.04189	562.0	607.0	608.0
3470.0	6936.009	0.1203	73.04189	563.5	609.0	609.0
3474.0	6944.009	0.1203	73.04189	564.5	610.0	610.0
3488.0	6972.009	0.1202	72.98118	565.5	611.0	612.0
3492.0	6980.009	0.1202	72.98118	566.75	612.0	613.0
3496.0	6988.009	0.1202	72.98118	568.0	614.0	613.0
3503.0	7002.009	0.1202	72.98118	569.0	614.0	615.0
3508.0	7012.009	0.1202	72.98118	570.0	615.0	615.0
3513.0	7022.009	0.1202	72.98118	571.0	616.0	616.0
3520.0	7036.009	0.1201	72.92046	572.0	618.0	617.0
3529.0	7054.009	0.1201	72.92046	573.0	618.0	619.0
3533.0	7062.009	0.1201	72.92046	574.0	620.0	620.0
3538.0	7072.009	0.1201	72.92046	575.0	620.0	620.0
3544.0	7084.009	0.1201	72.92046	576.0	621.0	621.0
3551.0	7098.009	0.1201	72.92046	577.0	622.0	623.0
3556.0	7108.009	0.1201	72.92046	578.0	623.0	623.0
3561.0	7118.009	0.12	72.85974	579.0	624.0	624.0
3568.0	7132.009	0.12	72.85974	580.0	625.0	625.0
3574.0	7144.009	0.12	72.85974	581.0	626.0	626.0
3579.0	7154.009	0.12	72.85974	582.0	626.0	627.0
3585.0	7166.009	0.1199	72.79903	583.0	628.0	628.0
3591.0	7178.009	0.1199	72.79903	584.0	629.0	629.0
3597.0	7190.009	0.1199	72.79903	585.0	630.0	630.0
3603.0	7202.009	0.1199	72.79903	586.0	631.0	631.0
3608.0	7212.009	0.1199	72.79903	587.0	632.0	632.0
3616.0	7228.009	0.1199	72.79903	588.0	633.0	633.0
3621.0	7238.009	0.1199	72.79903	589.0	634.0	634.0
3627.0	7250.009	0.1198	72.73831	590.0	635.0	635.0
3634.0	7264.009	0.1198	72.73831	591.0	636.0	636.0
3639.0	7274.009	0.1198	72.73831	592.0	637.0	637.0
3643.0	7282.009	0.1198	72.73831	593.0	638.0	638.0
3649.0	7294.009	0.1198	72.73831	594.0	639.0	639.0
3656.0	7308.009	0.1198	72.73831	595.0	640.0	640.0
3664.0	7324.009	0.1197	72.6776	596.0	641.0	641.0
3669.0	7334.009	0.1197	72.6776	597.0	641.0	642.0
3674.0	7344.009	0.1197	72.6776	598.0	643.0	643.0
3680.0	7356.009	0.1197	72.6776	599.5	643.0	644.0
3684.0	7364.009	0.1197	72.6776	601.0	644.0	645.0
3689.0	7374.009	0.1196	72.61688	602.25	645.0	645.0
3694.0	7384.009	0.1196	72.61688	603.25	647.0	646.0
3707.0	7410.009	0.1196	72.61688	604.5	648.0	648.0
3711.0	7418.009	0.1196	72.61688	605.5	649.0	649.0
3718.0	7432.009	0.1196	72.61688	606.5	650.0	650.0
3726.0	7448.009	0.1196	72.61688	607.5	651.0	652.0
3731.0	7458.009	0.1196	72.61688	608.5	652.0	652.0
3738.0	7472.009	0.1195	72.55616	609.5	653.0	654.0
3744.0	7484.009	0.1195	72.55616	610.5	654.0	655.0
3748.0	7492.009	0.1195	72.55616	611.5	655.0	655.0
3752.0	7500.009	0.1195	72.55616	612.5	656.0	656.0
3759.0	7514.009	0.1195	72.55616	613.5	657.0	657.0
3767.0	7530.009	0.1195	72.55616	614.5	658.0	658.0
3774.0	7544.009	0.1195	72.55616	615.5	659.0	660.0
3780.0	7556.009	0.1194	72.49545	616.5	660.0	661.0
3786.0	7568.009	0.1194	72.49545	617.5	661.0	662.0
3792.0	7580.009	0.1194	72.49545	618.5	662.0	663.0
3800.0	7596.009	0.1194	72.49545	619.75	664.0	664.0
3806.0	7608.009	0.1194	72.49545	620.75	665.0	665.0
3811.0	7618.009	0.1194	72.49545	621.75	666.0	666.0
3818.0	7632.009	0.1193	72.43473	622.75	666.0	667.0
3824.0	7644.009	0.1193	72.43473	624.0	668.0	668.0
3833.0	7662.009	0.1193	72.43473	625.25	669.0	669.0
3839.0	7674.009	0.1193	72.43473	626.25	670.0	670.0
3844.0	7684.009	0.1193	72.43473	627.25	671.0	671.0
3849.0	7694.009	0.1192	72.37401	628.25	671.0	672.0
3853.0	7702.009	0.1192	72.37401	630.0	672.0	673.0
3857.0	7710.009	0.1192	72.37401	631.25	674.0	673.0
3869.0	7734.009	0.1192	72.37401	632.25	675.0	675.0
3876.0	7748.009	0.1192	72.37401	633.5	676.0	676.0
3881.0	7758.009	0.1192	72.37401	634.5	677.0	677.0
3890.0	7776.009	0.1192	72.37401	635.5	678.0	679.0
3895.0	7786.009	0.1192	72.37401	636.5	679.0	680.0
3901.0	7798.009	0.1191	72.3133	637.5	681.0	681.0
3908.0	7812.009	0.1191	72.3133	638.5	681.0	682.0
3912.0	7820.009	0.1191	72.3133	639.5	682.0	682.0
3918.0	7832.009	0.1191	72.3133	640.5	683.0	683.0
3927.0	7850.009	0.119	72.25258	641.75	685.0	685.0
3935.0	7866.009	0.1191	72.3133	643.0	686.0	686.0
3940.0	7876.009	0.119	72.25258	644.0	687.0	687.0
3945.0	7886.009	0.119	72.25258	645.0	688.0	688.0
3952.0	7900.009	0.119	72.25258	646.0	689.0	689.0
3959.0	7914.009	0.119	72.25258	647.0	690.0	690.0
3965.0	7926.009	0.119	72.25258	648.0	691.0	691.0
3972.0	7940.009	0.119	72.25258	649.0	692.0	692.0
3978.0	7952.009	0.119	72.25258	650.0	693.0	693.0
3982.0	7960.009	0.1189	72.19186	651.0	693.0	694.0
3986.0	7968.009	0.1189	72.19186	652.5	694.0	695.0
3990.0	7976.009	0.1189	72.19186	653.75	695.0	695.0
3997.0	7990.009	0.1189	72.19186	654.75	697.0	697.0
4004.0	8004.009	0.1189	72.19186	655.75	697.0	698.0
4014.0	8024.009	0.1189	72.19186	656.75	699.0	699.0
4020.0	8036.009	0.1188	72.13115	657.75	700.0	700.0
4027.0	8050.009	0.1189	72.19186	658.75	701.0	702.0
4031.0	8058.009	0.1188	72.13115	659.75	702.0	702.0
4039.0	8074.009	0.1188	72.13115	660.75	703.0	704.0
4046.0	8088.009	0.1188	72.13115	661.75	705.0	705.0
4052.0	8100.009	0.1187	72.07043	662.75	705.0	706.0
4058.0	8112.009	0.1187	72.07043	663.75	706.0	707.0
4063.0	8122.009	0.1187	72.07043	664.75	708.0	708.0
4071.0	8138.009	0.1187	72.07043	665.75	709.0	709.0
4076.0	8148.009	0.1187	72.07043	666.75	709.0	710.0
4082.0	8160.009	0.1187	72.07043	667.75	711.0	711.0
4090.0	8176.009	0.1187	72.07043	668.75	711.0	712.0
4095.0	8186.009	0.1187	72.07043	669.75	712.0	713.0
4099.0	8194.009	0.1187	72.07043	671.0	712.0	713.0
4103.0	8202.009	0.1187	72.07043	672.75	714.0	714.0
4109.0	8214.009	0.1186	72.00971	674.0	715.0	715.0
4120.0	8236.009	0.1186	72.00971	675.0	716.0	717.0
4129.0	8254.009	0.1186	72.00971	676.25	718.0	718.0
4135.0	8266.009	0.1186	72.00971	677.25	719.0	719.0
4140.0	8276.009	0.1185	71.949	678.25	720.0	720.0
4149.0	8294.009	0.1186	72.00971	679.25	722.0	722.0
4154.0	8304.009	0.1186	72.00971	680.25	722.0	723.0
4160.0	8316.009	0.1185	71.949	681.25	724.0	724.0
4169.0	8334.009	0.1185	71.949	682.5	724.0	725.0
4174.0	8344.009	0.1185	71.949	683.5	726.0	726.0
4181.0	8358.009	0.1185	71.949	684.5	727.0	727.0
4190.0	8376.009	0.1185	71.949	685.5	728.0	729.0
4196.0	8388.009	0.1185	71.949	686.5	729.0
4200.0	8396.009	0.1184	71.88828	688.0	729.0	730.0
4204.0	8404.009	0.1184	71.88828	689.5	730.0	731.0
4208.0	8412.009	0.1184	71.88828	690.5	732.0	732.0
4217.0	8430.009	0.1184	71.88828	691.5	733.0	733.0
4223.0	8442.009	0.1184	71.88828	692.5	734.0	734.0
4233.0	8462.009	0.1184	71.88828	693.5	736.0	736.0
4237.0	8470.009	0.1183	71.82757	694.5	736.0	736.0
4244.0	8484.009	0.1183	71.82757	695.5	737.0	738.0
4251.0	8498.009	0.1183	71.82757	696.5	739.0	739.0
4257.0	8510.009	0.1183	71.82757	697.5	740.0	740.0
4264.0	8524.009	0.1183	71.82757	698.5	741.0	741.0
4271.0	8538.009	0.1183	71.82757	699.5	742.0	742.0
4278.0	8552.009	0.1182	71.76685	700.5	743.0	743.0
4284.0	8564.009	0.1182	71.76685	701.5	744.0	744.0
4288.0	8572.009	0.1183	71.82757	702.5	744.0	745.0
4292.0	8580.009	0.1182	71.76685	704.0	745.0	746.0
4296.0	8588.009	0.1182	71.76685	705.25	746.0	746.0
4310.0	8616.009	0.1182	71.76685	706.25	748.0	749.0
4314.0	8624.009	0.1182	71.76685	707.25	749.0	749.0
4319.0	8634.009	0.1181	71.70613	708.5	750.0	750.0
4325.0	8646.009	0.1181	71.70613	709.5	752.0	751.0
4336.0	8668.009	0.1181	71.70613	710.75	753.0	753.0
4342.0	8680.009	0.1181	71.70613	711.75	754.0	754.0
4353.0	8702.009	0.1181	71.70613	712.75	755.0	756.0
4358.0	8712.009	0.1181	71.70613	713.75	756.0	756.0
4363.0	8722.009	0.118	71.64542	715.0	757.0	757.0
4372.0	8740.009	0.1181	71.70613	716.0	758.0	759.0
4376.0	8748.009	0.118	71.64542	717.25	759.0	759.0
4380.0	8756.009	0.118	71.64542	718.75	760.0	760.0
4386.0	8768.009	0.118	71.64542	720.0	762.0	761.0
4398.0	8792.009	0.118	71.64542	721.0	762.0	763.0
4404.0	8804.009	0.118	71.64542	722.0	764.0	764.0
4412.0	8820.009	0.1179	71.5847	723.0	765.0	765.0
4416.0	8828.009	0.118	71.64542	724.0	766.0	766.0
4427.0	8850.009	0.118	71.64542	725.0	768.0	768.0
4433.0	8862.009	0.1179	71.5847	726.25	768.0	769.0
4437.0	8870.009	0.1179	71.5847	727.25	769.0	770.0
4444.0	8884.009	0.1179	71.5847	728.25	771.0	771.0
4453.0	8902.009	0.1179	71.5847	729.25	772.0	772.0
4459.0	8914.009	0.1179	71.5847	730.75	772.0	773.0
4463.0	8922.009	0.1179	71.5847	732.25	774.0	774.0
4467.0	8930.009	0.1179	71.5847	733.75	775.0	775.0
4482.0	8960.009	0.1179	71.5847	734.75	777.0	777.0
4491.0	8978.009	0.1178	71.52398	736.0	778.0	779.0
4495.0	8986.009	0.1178	71.52398	737.25	779.0	779.0
4500.0	8996.009	0.1178	71.52398	738.25	781.0	780.0
4514.0	9024.009	0.1178	71.52398	739.25	782.0	782.0
4518.0	9032.009	0.1177	71.46327	740.5	783.0	783.0
4528.0	9052.009	0.1177	71.46327	741.5	784.0	785.0
4532.0	9060.009	0.1176	71.40255	742.75	784.0	785.0
4536.0	9068.009	0.1177	71.46327	744.5	786.0	786.0
4541.0	9078.009	0.1177	71.46327	745.75	788.0	787.0
4554.0	9104.009	0.1177	71.46327	746.75	788.0	789.0
4558.0	9112.009	0.1176	71.40255	747.75	789.0	790.0
4570.0	9136.009	0.1176	71.40255	748.75	791.0	792.0
4574.0	9144.009	0.1176	71.40255	750.0	792.0	792.0
4579.0	9154.009	0.1176	71.40255	751.0	794.0	793.0
4594.0	9184.009	0.1176	71.40255	752.0	795.0	796.0
4598.0	9192.009	0.1175	71.34183	753.0	796.0	796.0
4602.0	9200.009	0.1176	71.40255	754.0	796.0	797.0
4606.0	9208.009	0.1175	71.34183	755.5	797.0	798.0
4610.0	9216.009	0.1175	71.34183	756.75	799.0	798.0
4621.0	9238.009	0.1175	71.34183	758.0	800.0	800.0
4628.0	9252.009	0.1175	71.34183	759.0	801.0	801.0
4634.0	9264.009	0.1175	71.34183	760.0	802.0	802.0
4644.0	9284.009	0.1175	71.34183	761.25	804.0	804.0
4650.0	9296.009	0.1175	71.34183	762.25	804.0	805.0
4660.0	9316.009	0.1174	71.28112	763.25	806.0	807.0
4666.0	9328.009	0.1174	71.28112	764.25	807.0	808.0
4670.0	9336.009	0.1175	71.34183	765.75	807.0	808.0
4674.0	9344.009	0.1174	71.28112	767.0	808.0	809.0
4684.0	9364.009	0.1174	71.28112	768.0	811.0	811.0
4693.0	9382.009	0.1174	71.28112	769.0	812.0	812.0
4702.0	9400.009	0.1174	71.28112	770.0	813.0	814.0
4708.0	9412.009	0.1173	71.2204	771.0	814.0	815.0
4716.0	9428.009	0.1174	71.28112	772.25	816.0	816.0
4722.0	9440.009	0.1173	71.2204	773.25	817.0	817.0
4731.0	9458.009	0.1173	71.2204	774.25	818.0	818.0
4735.0	9466.009	0.1168	70.91682	775.25	818.0	819.0
4739.0	9474.009	0.1173	71.2204	776.75	819.0	820.0
4743.0	9482.009	0.1173	71.2204	778.0	822.0	820.0
4753.0	9502.009	0.1172	71.15968	779.0	821.0	822.0
4758.0	9512.009	0.1172	71.15968	780.0	823.0	823.0
4766.0	9528.009	0.1172	71.15968	781.0	823.0	824.0
4773.0	9542.009	0.1172	71.15968	782.0	825.0	825.0
4782.0	9560.009	0.1172	71.15968	783.0	826.0	827.0
4793.0	9582.009	0.1172	71.15968	784.0	828.0	829.0
4797.0	9590.009	0.1171	71.09897	785.75	828.0	829.0
4801.0	9598.009	0.1171	71.09897	787.5	829.0	830.0
4806.0	9608.009	0.1171	71.09897	788.5	831.0	831.0
4821.0	9638.009	0.1171	71.09897	789.5	833.0	833.0
4829.0	9654.009	0.117	71.03825	790.5	834.0	835.0
4834.0	9664.009	0.1171	71.09897	791.5	835.0	835.0
4840.0	9676.009	0.1171	71.09897	792.5	836.0	836.0
4849.0	9694.009	0.117	71.03825	793.5	838.0	838.0
4855.0	9706.009	0.117	71.03825	794.75	838.0	839.0
4859.0	9714.009	0.117	71.03825	796.25	839.0	840.0
4866.0	9728.009	0.117	71.03825	797.5	841.0	841.0
4878.0	9752.009	0.1169	70.97753	798.5	843.0	843.0
4883.0	9762.009	0.117	71.03825	799.5	844.0	844.0
4890.0	9776.009	0.1169	70.97753	800.5	845.0	845.0
4899.0	9794.009	0.117	71.03825	801.5	846.0	846.0
4909.0	9814.009	0.1169	70.97753	802.5	847.0	848.0
4915.0	9826.009	0.1169	70.97753	803.75	848.0	849.0
4919.0	9834.009	0.1168	70.91682	805.5	849.0	850.0
4923.0	9842.009	0.1169	70.97753	806.75	849.0	850.0
4937.0	9870.009	0.1169	70.97753	807.75	852.0	853.0
4946.0	9888.009	0.1168	70.91682	808.75	854.0	854.0
4952.0	9900.009	0.1168	70.91682	809.75	854.0	855.0
4957.0	9910.009	0.1168	70.91682	810.75	856.0	856.0
4963.0	9922.009	0.1168	70.91682	811.75	857.0	857.0
4969.0	9934.009	0.1168	70.91682	813.0	857.0	858.0
4974.0	9944.009	0.1168	70.91682	814.5	859.0	859.0
4980.0	9956.009	0.1167	70.8561	815.5	860.0	860.0
4991.0	9978.009	0.1167	70.8561	816.5	861.0	862.0
5000.0	9996.009	0.1167	70.8561	817.75	862.0	863.0
5007.0	10010.009	0.1167	70.8561	818.75	863.0	864.0
5014.0	10024.009	0.1166	70.79539	819.75	865.0	865.0
5023.0	10042.009	0.1166	70.79539	821.0	866.0	867.0
5028.0	10052.009	0.1166	70.79539	822.5	867.0	868.0
5032.0	10060.009	0.1166	70.79539	824.0	869.0	868.0
5042.0	10080.009	0.1166	70.79539	825.0	870.0	870.0
5054.0	10104.009	0.1166	70.79539	826.0	872.0	872.0
5058.0	10112.009	0.1165	70.73467	827.0	872.0	873.0
5067.0	10130.009	0.1165	70.73467	828.0	874.0	874.0
5076.0	10148.009	0.1165	70.73467	829.25	875.0	876.0
5080.0	10156.009	0.1165	70.73467	830.5	876.0	876.0
5084.0	10164.009	0.1165	70.73467	832.0	876.0	877.0
5099.0	10194.009	0.1165	70.73467	833.0	878.0	879.0
5103.0	10202.009	0.1165	70.73467	834.25	880.0	880.0
5109.0	10214.009	0.1164	70.67395	835.25	881.0	881.0
5118.0	10232.009	0.1164	70.67395	836.25	882.0	883.0
5131.0	10258.009	0.1164	70.67395	837.25	884.0	885.0
5135.0	10266.009	0.1164	70.67395	838.5	885.0	885.0
5139.0	10274.009	0.1163	70.61324	840.0	887.0	886.0
5146.0	10288.009	0.1163	70.61324	841.0	887.0	887.0
5156.0	10308.009	0.1163	70.61324	842.25	889.0	889.0
5169.0	10334.009	0.1163	70.61324	843.25	892.0	891.0
5174.0	10344.009	0.1163	70.61324	844.5	892.0	892.0
5180.0	10356.009	0.1163	70.61324	845.5	892.0	893.0
5184.0	10364.009	0.1163	70.61324	847.0	893.0	894.0
5189.0	10374.009	0.1163	70.61324	848.25	894.0	894.0
5197.0	10390.009	0.1162	70.55252	849.25	896.0	896.0
5213.0	10422.009	0.1162	70.55252	850.5	898.0	898.0
5217.0	10430.009	0.1163	70.61324	851.5	899.0	899.0
5219.0	10434.009	0.1162	70.55252	852.0	899.0	899.0