File: charts/20230801/TGA/INSATURADAS/STD 4A.txt
24/05/2023 18:38:10
User name: Gabs
Comments: Zeólitas Mariana
Number	time(s)	mass(g)	Relative_mass(%)	Sample_T(C)	PV(C)	SV(C)
1.0	0.0	0.1316	100.0	68.5	112.0	64.0
18.0	32.0	0.1316	100.0	67.5	110.0	64.0
36.0	68.0	0.1314	99.84802	66.5	108.0	64.0
55.0	106.0	0.1314	99.84802	65.5	107.0	64.0
74.0	144.0	0.1313	99.77204	64.5	106.0	64.0
91.0	178.0	0.1312	99.69605	63.5	104.0	64.0
111.0	218.0	0.1311	99.62006	62.5	103.0	64.0
130.0	256.0	0.131	99.54407	61.5	102.0	64.0
153.0	302.0	0.131	99.54407	60.5	100.0	64.0
174.0	344.0	0.131	99.54407	59.5	99.0	64.0
195.0	386.0	0.131	99.54407	58.5	98.0	64.0
221.0	438.0	0.131	99.54407	57.5	96.0	64.0
246.0	488.0	0.131	99.54407	56.5	96.0	64.0
267.0	530.0	0.131	99.54407	55.5	95.0	64.0
294.0	584.0	0.131	99.54407	54.5	93.0	67.0
322.0	640.0	0.131	99.54407	53.5	92.0	72.0
353.0	702.0	0.131	99.54407	52.5	91.0	76.0
381.0	758.0	0.131	99.54407	51.5	89.0	80.0
414.0	824.0	0.131	99.54407	50.5	89.0	85.0
629.0	1254.0	0.1302	98.93617	69.25	119.0	118.0
639.0	1274.0	0.1302	98.93617	70.25	120.0	119.0
650.0	1296.0	0.1301	98.86018	71.25	120.0	121.0
657.0	1310.0	0.1301	98.86018	72.25	123.0	122.0
665.0	1326.0	0.13	98.78419	73.25	123.0	123.0
673.0	1342.0	0.13	98.78419	74.25	124.0	124.0
681.0	1358.0	0.1299	98.70821	75.25	127.0	125.0
688.0	1372.0	0.1299	98.70821	76.25	128.0	126.0
699.0	1394.0	0.1298	98.63222	77.25	128.0	128.0
706.0	1408.0	0.1297	98.55623	78.25	129.0	129.0
712.0	1420.0	0.1297	98.55623	79.25	131.0	130.0
723.0	1442.0	0.1297	98.55623	80.25	132.0	132.0
732.0	1460.0	0.1296	98.48024	81.25	133.0	133.0
738.0	1472.0	0.1295	98.40426	82.25	134.0	134.0
747.0	1490.0	0.1294	98.32827	83.75	137.0	135.0
758.0	1512.0	0.1294	98.32827	84.75	137.0	137.0
767.0	1530.0	0.1293	98.25228	85.75	138.0	138.0
774.0	1544.0	0.1292	98.17629	86.75	140.0	139.0
786.0	1568.0	0.1291	98.1003	87.75	141.0	141.0
793.0	1582.0	0.129	98.02432	88.75	142.0	142.0
799.0	1594.0	0.1289	97.94833	90.0	145.0	143.0
805.0	1606.0	0.1289	97.94833	91.0	146.0	144.0
815.0	1626.0	0.1289	97.94833	92.0	146.0	145.0
825.0	1646.0	0.1288	97.87234	93.0	147.0	147.0
833.0	1662.0	0.1287	97.79635	94.0	148.0	148.0
838.0	1672.0	0.1286	97.72036	95.0	150.0	149.0
846.0	1688.0	0.1285	97.64438	96.0	151.0	150.0
857.0	1710.0	0.1285	97.64438	97.0	152.0	152.0
864.0	1724.0	0.1284	97.56839	98.0	153.0	153.0
870.0	1736.0	0.1283	97.4924	99.0	155.0	154.0
878.0	1752.0	0.1282	97.41641	100.0	156.0	155.0
890.0	1776.0	0.1281	97.34043	101.0	156.0	157.0
897.0	1790.0	0.128	97.26444	102.0	158.0	158.0
901.0	1798.0	0.1279	97.18845	103.0	159.0	158.0
907.0	1810.0	0.1279	97.18845	104.0	161.0	159.0
915.0	1826.0	0.1279	97.18845	105.0	162.0	160.0
929.0	1854.0	0.1277	97.03647	106.0	162.0	162.0
935.0	1866.0	0.1276	96.96049	107.0	163.0	163.0
940.0	1876.0	0.1275	96.8845	108.25	166.0	164.0
946.0	1888.0	0.1275	96.8845	109.25	167.0	165.0
953.0	1902.0	0.1274	96.80851	110.25	168.0	166.0
968.0	1932.0	0.1272	96.65653	111.25	168.0	168.0
973.0	1942.0	0.1271	96.58055	112.25	169.0	169.0
978.0	1952.0	0.1271	96.58055	113.25	172.0	170.0
984.0	1964.0	0.1271	96.58055	114.25	173.0	171.0
999.0	1994.0	0.1269	96.42857	115.25	173.0	173.0
1007.0	2010.0	0.1268	96.35258	116.25	174.0	174.0
1011.0	2018.0	0.1267	96.2766	117.25	175.0	175.0
1016.0	2028.0	0.1267	96.2766	118.5	178.0	176.0
1022.0	2040.0	0.1266	96.20061	119.5	179.0	176.0
1039.0	2074.0	0.1264	96.04863	120.5	179.0	179.0
1045.0	2086.0	0.1263	95.97264	121.5	180.0	180.0
1050.0	2096.0	0.1262	95.89666	122.5	182.0	181.0
1056.0	2108.0	0.1262	95.89666	123.5	184.0	181.0
1069.0	2134.0	0.1261	95.82067	124.5	184.0	183.0
1078.0	2152.0	0.1259	95.66869	125.5	185.0	185.0
1083.0	2162.0	0.1258	95.59271	126.5	186.0	186.0
1087.0	2170.0	0.1258	95.59271	127.5	188.0	186.0
1098.0	2192.0	0.1257	95.51672	128.5	189.0	188.0
1111.0	2218.0	0.1256	95.44073	129.5	189.0	190.0
1116.0	2228.0	0.1255	95.36474	130.5	191.0	190.0
1120.0	2236.0	0.1254	95.28875	131.5	192.0	191.0
1125.0	2246.001	0.1253	95.21277	132.5	194.0	192.0
1138.0	2272.001	0.1252	95.13678	133.5	195.0	194.0
1148.0	2292.001	0.1251	95.06079	134.5	195.0	195.0
1153.0	2302.001	0.125	94.9848	135.5	196.0	196.0
1160.0	2316.001	0.1249	94.90881	136.5	197.0	197.0
1171.0	2338.001	0.1248	94.83283	137.5	199.0	199.0
1181.0	2358.001	0.1247	94.75684	138.5	200.0	200.0
1188.0	2372.001	0.1246	94.68085	139.5	201.0	201.0
1194.0	2384.001	0.1245	94.60486	140.75	203.0	202.0
1201.0	2398.001	0.1244	94.52888	141.75	204.0	203.0
1208.0	2412.001	0.1243	94.45289	142.75	206.0	204.0
1220.0	2436.001	0.1242	94.3769	143.75	206.0	206.0
1229.0	2454.001	0.124	94.22492	144.75	207.0	207.0
1234.0	2464.001	0.1239	94.14894	145.75	209.0	208.0
1239.0	2474.001	0.1239	94.14894	146.75	209.0	209.0
1245.0	2486.001	0.1238	94.07295	147.75	210.0	210.0
1256.0	2508.001	0.1237	93.99696	148.75	211.0	211.0
1264.0	2524.001	0.1236	93.92097	149.75	213.0	213.0
1274.0	2544.001	0.1234	93.769	150.75	214.0	214.0
1280.0	2556.001	0.1233	93.69301	151.75	215.0	215.0
1287.0	2570.001	0.1232	93.61702	152.75	216.0	216.0
1294.0	2584.001	0.1231	93.54103	153.75	217.0	217.0
1300.0	2596.001	0.123	93.46505	154.75	218.0	218.0
1307.0	2610.001	0.1229	93.38906	155.75	219.0	219.0
1315.0	2626.001	0.1228	93.31307	156.75	221.0	220.0
1326.0	2648.001	0.1226	93.16109	157.75	222.0	222.0
1333.0	2662.001	0.1225	93.08511	158.75	223.0	223.0
1338.0	2672.001	0.1225	93.08511	159.75	224.0	224.0
1344.0	2684.001	0.1224	93.00912	160.75	225.0	225.0
1353.0	2702.001	0.1222	92.85714	161.75	226.0	226.0
1360.0	2716.001	0.1221	92.78116	162.75	227.0	227.0
1367.0	2730.001	0.122	92.70517	163.75	229.0	228.0
1378.0	2752.001	0.1218	92.55319	164.75	230.0	230.0
1385.0	2766.001	0.1217	92.4772	165.75	231.0	231.0
1391.0	2778.001	0.1216	92.40122	166.75	232.0	232.0
1397.0	2790.001	0.1215	92.32523	167.75	233.0	233.0
1404.0	2804.001	0.1213	92.17325	168.75	234.0	234.0
1411.0	2818.001	0.1212	92.09726	169.75	235.0	235.0
1417.0	2830.001	0.1211	92.02128	170.75	237.0	236.0
1430.0	2856.001	0.1209	91.8693	171.75	237.0	238.0
1438.0	2872.001	0.1207	91.71733	172.75	239.0	239.0
1443.0	2882.001	0.1206	91.64134	174.0	240.0	239.0
1450.0	2896.001	0.1205	91.56535	175.0	241.0	241.0
1458.0	2912.001	0.1203	91.41337	176.0	242.0	242.0
1465.0	2926.001	0.1202	91.33739	177.0	243.0	243.0
1473.0	2942.001	0.12	91.18541	178.0	245.0	244.0
1486.0	2968.001	0.1198	91.03343	179.0	245.0	246.0
1491.0	2978.001	0.1197	90.95745	180.0	246.0	247.0
1497.0	2990.001	0.1195	90.80547	181.25	248.0	248.0
1502.0	3000.001	0.1194	90.72948	182.25	249.0	248.0
1512.0	3020.001	0.1192	90.57751	183.25	250.0	250.0
1519.0	3034.001	0.1191	90.50152	184.25	250.0	251.0
1525.0	3046.001	0.1189	90.34954	185.25	252.0	252.0
1531.0	3058.001	0.1188	90.27356	186.25	254.0	253.0
1541.0	3078.001	0.1186	90.12158	187.25	254.0	254.0
1550.0	3096.001	0.1184	89.9696	188.25	255.0	255.0
1556.0	3108.001	0.1183	89.89362	189.25	257.0	256.0
1562.0	3120.001	0.1181	89.74164	190.25	257.0	257.0
1569.0	3134.001	0.1179	89.58967	191.25	258.0	258.0
1577.0	3150.001	0.1178	89.51368	192.5	260.0	260.0
1583.0	3162.001	0.1176	89.3617	193.5	260.0	260.0
1591.0	3178.001	0.1175	89.28571	194.5	261.0	262.0
1605.0	3206.001	0.1172	89.05775	195.5	263.0	264.0
1612.0	3220.001	0.117	88.90578	196.75	264.0	265.0
1616.0	3228.001	0.1168	88.7538	197.75	266.0	265.0
1621.0	3238.001	0.1168	88.7538	198.75	267.0	266.0
1629.0	3254.001	0.1166	88.60182	199.75	267.0	267.0
1636.0	3268.001	0.1164	88.44985	200.75	268.0	268.0
1643.0	3282.001	0.1162	88.29787	201.75	269.0	269.0
1649.0	3294.001	0.116	88.1459	202.75	270.0	270.0
1655.0	3306.001	0.1159	88.06991	203.75	271.0	271.0
1670.0	3336.001	0.1155	87.76596	204.75	273.0	273.0
1678.0	3352.001	0.1153	87.61398	206.0	274.0	275.0
1682.0	3360.001	0.1152	87.53799	207.25	276.0	275.0
1688.0	3372.001	0.115	87.38602	208.25	277.0	276.0
1698.0	3392.001	0.1148	87.23404	209.25	277.0	278.0
1703.0	3402.001	0.1147	87.15805	210.25	278.0	278.0
1707.0	3410.001	0.1146	87.08207	211.25	279.0	279.0
1712.0	3420.001	0.1145	87.00608	212.25	280.0	280.0
1720.0	3436.001	0.1143	86.8541	213.25	281.0	281.0
1728.0	3452.001	0.114	86.62614	214.25	283.0	282.0
1739.0	3474.001	0.1138	86.47416	215.25	284.0	284.0
1747.0	3490.001	0.1136	86.32219	216.25	285.0	285.0
1754.0	3504.001	0.1134	86.17021	217.25	286.0	286.0
1759.0	3514.001	0.1133	86.09422	218.25	287.0	287.0
1764.0	3524.001	0.1132	86.01824	219.25	288.0	288.0
1772.0	3540.001	0.1129	85.79027	220.25	288.0	289.0
1777.0	3550.001	0.1128	85.71429	221.25	290.0	289.0
1784.0	3564.001	0.1127	85.6383	222.25	291.0	291.0
1792.0	3580.001	0.1125	85.48632	223.25	291.0	292.0
1800.0	3596.001	0.1123	85.33435	224.25	293.0	293.0
1810.0	3616.001	0.112	85.10638	225.25	294.0	294.0
1816.0	3628.001	0.1119	85.0304	226.5	295.0	295.0
1822.0	3640.001	0.1118	84.95441	227.5	296.0	296.0
1829.0	3654.001	0.1116	84.80243	228.5	297.0	297.0
1836.0	3668.001	0.1114	84.65046	229.5	298.0	298.0
1841.0	3678.001	0.1113	84.57447	230.5	299.0	299.0
1847.0	3690.001	0.1112	84.49848	231.5	300.0	300.0
1853.0	3702.001	0.111	84.3465	232.5	301.0	301.0
1859.0	3714.001	0.1109	84.27052	233.5	302.0	302.0
1864.0	3724.001	0.1108	84.19453	234.5	304.0	303.0
1881.0	3758.001	0.1104	83.89058	235.5	304.0	305.0
1885.0	3766.001	0.1103	83.81459	236.5	306.0	306.0
1889.0	3774.001	0.1102	83.7386	237.5	307.0	306.0
1895.0	3786.001	0.1101	83.66261	238.5	308.0	307.0
1903.0	3802.001	0.11	83.58663	239.5	308.0	308.0
1909.0	3814.001	0.1099	83.51064	240.5	309.0	309.0
1916.0	3828.001	0.1097	83.35866	241.75	310.0	310.0
1922.0	3840.001	0.1096	83.28267	242.75	311.0	311.0
1928.0	3852.001	0.1095	83.20669	243.75	312.0	312.0
1936.0	3868.001	0.1093	83.05471	245.0	313.0	313.0
1942.0	3880.001	0.1092	82.97872	246.0	314.0	314.0
1957.0	3910.002	0.109	82.82675	247.0	316.0	316.0
1964.0	3924.002	0.1089	82.75076	248.0	317.0	317.0
1968.0	3932.002	0.1088	82.67477	249.0	318.0	318.0
1972.0	3940.002	0.1087	82.59878	250.0	319.0	319.0
1978.0	3952.002	0.1086	82.5228	251.0	320.0	320.0
1986.0	3968.002	0.1085	82.44681	252.0	321.0	321.0
1991.0	3978.002	0.1084	82.37082	253.0	322.0	322.0
1997.0	3990.002	0.1083	82.29483	254.0	323.0	322.0
2003.0	4002.002	0.1083	82.29483	255.0	323.0	323.0
2009.0	4014.002	0.1082	82.21884	256.0	324.0	324.0
2015.0	4026.002	0.1081	82.14286	257.0	325.0	325.0
2023.0	4042.002	0.108	82.06687	258.0	326.0	326.0
2028.0	4052.002	0.1079	81.99088	259.0	327.0	327.0
2035.0	4066.002	0.1078	81.91489	260.0	329.0	328.0
2048.0	4092.002	0.1077	81.83891	261.0	330.0	330.0
2053.0	4102.002	0.1076	81.76292	262.0	331.0	331.0
2057.0	4110.002	0.1076	81.76292	263.0	332.0	331.0
2063.0	4122.002	0.1075	81.68693	264.0	333.0	332.0
2074.0	4144.002	0.1074	81.61094	265.0	333.0	334.0
2078.0	4152.002	0.1074	81.61094	266.0	335.0	335.0
2084.0	4164.002	0.1073	81.53495	267.25	336.0	335.0
2091.0	4178.002	0.1072	81.45897	268.25	336.0	337.0
2098.0	4192.002	0.1071	81.38298	269.25	337.0	338.0
2104.0	4204.002	0.1071	81.38298	270.25	338.0	338.0
2108.0	4212.002	0.1071	81.38298	271.25	339.0	339.0
2115.0	4226.002	0.107	81.30699	272.25	340.0	340.0
2122.0	4240.002	0.1069	81.231	273.25	341.0	341.0
2134.0	4264.002	0.1069	81.231	274.25	341.0	343.0
2138.0	4272.002	0.1068	81.15502	275.25	344.0	344.0
2145.0	4286.002	0.1068	81.15502	276.25	346.0	345.0
2157.0	4310.002	0.1066	81.00304	277.25	345.0	346.0
2161.0	4318.002	0.1066	81.00304	278.25	347.0	347.0
2165.0	4326.002	0.1065	80.92705	279.25	349.0	348.0
2176.0	4348.002	0.1065	80.92705	280.25	348.0	349.0
2181.0	4358.002	0.1064	80.85106	281.25	350.0	350.0
2185.0	4366.002	0.1064	80.85106	282.25	351.0	351.0
2192.0	4380.002	0.1064	80.85106	283.25	352.0	352.0
2200.0	4396.002	0.1063	80.77508	284.25	353.0	353.0
2206.0	4408.002	0.1063	80.77508	285.25	354.0	354.0
2212.0	4420.002	0.1062	80.69909	286.25	355.0	355.0
2217.0	4430.002	0.1062	80.69909	287.25	356.0	355.0
2225.0	4446.002	0.1061	80.6231	288.25	356.0	357.0
2230.0	4456.002	0.1061	80.6231	289.25	357.0	357.0
2244.0	4484.002	0.106	80.54711	290.25	359.0	359.0
2248.0	4492.002	0.106	80.54711	291.25	360.0	360.0
2253.0	4502.002	0.1059	80.47112	292.25	361.0	361.0
2261.0	4518.002	0.1059	80.47112	293.25	362.0	362.0
2268.0	4532.002	0.1058	80.39514	294.25	363.0	363.0
2274.0	4544.002	0.1058	80.39514	295.25	364.0	364.0
2278.0	4552.002	0.1058	80.39514	296.25	365.0	365.0
2286.0	4568.002	0.1057	80.31915	297.25	365.0	366.0
2291.0	4578.002	0.1056	80.24316	298.25	366.0	366.0
2297.0	4590.002	0.1056	80.24316	299.25	367.0	367.0
2304.0	4604.002	0.1056	80.24316	300.25	368.0	368.0
2310.0	4616.002	0.1056	80.24316	301.25	369.0	369.0
2315.0	4626.002	0.1056	80.24316	302.25	370.0	370.0
2322.0	4640.002	0.1055	80.16717	303.5	371.0	371.0
2328.0	4652.002	0.1054	80.09119	304.5	372.0	372.0
2335.0	4666.002	0.1054	80.09119	305.5	373.0	373.0
2341.0	4678.002	0.1053	80.0152	306.5	374.0	374.0
2349.0	4694.002	0.1053	80.0152	307.75	375.0	375.0
2357.0	4710.002	0.1053	80.0152	308.75	377.0	376.0
2370.0	4736.002	0.1052	79.93921	309.75	378.0	378.0
2374.0	4744.002	0.1052	79.93921	310.75	379.0	379.0
2379.0	4754.002	0.1052	79.93921	311.75	380.0	380.0
2386.0	4768.002	0.1051	79.86322	312.75	380.0	381.0
2392.0	4780.002	0.1051	79.86322	313.75	382.0	382.0
2399.0	4794.002	0.105	79.78723	315.0	383.0	383.0
2404.0	4804.002	0.105	79.78723	316.0	383.0	383.0
2411.0	4818.002	0.105	79.78723	317.0	384.0	384.0
2417.0	4830.002	0.1049	79.71125	318.0	385.0	385.0
2423.0	4842.002	0.1049	79.71125	319.0	386.0	386.0
2429.0	4854.002	0.1049	79.71125	320.0	387.0	387.0
2435.0	4866.002	0.1048	79.63526	321.0	388.0	388.0
2441.0	4878.002	0.1048	79.63526	322.0	389.0	389.0
2447.0	4890.002	0.1047	79.55927	323.0	390.0	390.0
2454.0	4904.002	0.1047	79.55927	324.0	391.0	391.0
2459.0	4914.006	0.1047	79.55927	325.0	391.0	392.0
2464.0	4924.006	0.1046	79.48328	326.0	392.0	392.0
2471.0	4938.006	0.1046	79.48328	327.0	393.0	393.0
2477.0	4950.006	0.1046	79.48328	328.0	394.0	394.0
2483.0	4962.006	0.1045	79.40729	329.5	395.0	395.0
2494.0	4984.006	0.1045	79.40729	330.5	396.0	397.0
2503.0	5002.006	0.1044	79.33131	331.5	398.0	398.0
2510.0	5016.006	0.1043	79.25532	332.5	399.0	399.0
2516.0	5028.006	0.1043	79.25532	333.5	400.0	400.0
2521.0	5038.006	0.1043	79.25532	334.5	401.0	401.0
2527.0	5050.006	0.1042	79.17933	335.5	402.0	402.0
2534.0	5064.006	0.1042	79.17933	336.5	403.0
2538.0	5072.006	0.1042	79.17933	337.5	404.0	403.0
2544.0	5084.006	0.1041	79.10334	338.5	404.0	404.0
2551.0	5098.006	0.1041	79.10334	339.5	406.0	405.0
2559.0	5114.006	0.104	79.02736	340.5	406.0	407.0
2564.0	5124.006	0.104	79.02736	341.5	407.0	407.0
2569.0	5134.006	0.104	79.02736	342.5	408.0	408.0
2575.0	5146.006	0.1039	78.95137	343.5	409.0	409.0
2581.0	5158.006	0.1039	78.95137	344.5	410.0	410.0
2587.0	5170.006	0.1038	78.87538	345.5	411.0	411.0
2592.0	5180.006	0.1038	78.87538	346.5	412.0	412.0
2598.0	5192.006	0.1038	78.87538	347.5	413.0	412.0
2606.0	5208.006	0.1038	78.87538	348.5	414.0	414.0
2613.0	5222.006	0.1037	78.79939	349.5	415.0	415.0
2618.0	5232.006	0.1037	78.79939	350.5	415.0	415.0
2623.0	5242.006	0.1036	78.7234	351.5	416.0	416.0
2630.0	5256.006	0.1036	78.7234	352.5	417.0	417.0
2635.0	5266.006	0.1036	78.7234	353.5	418.0	418.0
2641.0	5278.006	0.1035	78.64742	354.5	419.0	419.0
2646.0	5288.006	0.1035	78.64742	355.5	420.0	420.0
2654.0	5304.006	0.1034	78.57143	356.5	420.0	421.0
2659.0	5314.006	0.1034	78.57143	357.5	422.0	422.0
2664.0	5324.006	0.1034	78.57143	358.5	424.0	422.0
2676.0	5348.006	0.1033	78.49544	359.5	424.0	424.0
2681.0	5358.006	0.1033	78.49544	360.5	426.0	425.0
2692.0	5380.006	0.1032	78.41945	361.5	426.0	427.0
2697.0	5390.006	0.1032	78.41945	362.5	427.0	427.0
2702.0	5400.006	0.1031	78.34347	363.5	428.0	428.0
2707.0	5410.006	0.1031	78.34347	364.5	429.0	429.0
2714.0	5424.006	0.103	78.26748	365.5	430.0	430.0
2719.0	5434.006	0.103	78.26748	366.5	431.0	431.0
2725.0	5446.006	0.103	78.26748	367.5	432.0	431.0
2731.0	5458.006	0.103	78.26748	368.5	432.0	432.0
2737.0	5470.006	0.1029	78.19149	369.5	433.0	433.0
2744.0	5484.006	0.1028	78.1155	370.5	434.0	434.0
2749.0	5494.006	0.1028	78.1155	371.5	435.0	435.0
2756.0	5508.006	0.1028	78.1155	372.5	436.0	436.0
2763.0	5522.006	0.1027	78.03951	373.5	437.0	437.0
2768.0	5532.006	0.1027	78.03951	374.5	438.0	438.0
2773.0	5542.006	0.1026	77.96353	375.5	439.0	439.0
2778.0	5552.006	0.1026	77.96353	376.5	439.0	439.0
2785.0	5566.006	0.1026	77.96353	377.5	440.0	440.0
2792.0	5580.006	0.1025	77.88754	378.5	441.0	442.0
2798.0	5592.006	0.1025	77.88754	379.5	442.0	442.0
2804.0	5604.006	0.1024	77.81155	380.5	443.0	443.0
2809.0	5614.006	0.1024	77.81155	381.5	444.0	444.0
2815.0	5626.006	0.1024	77.81155	382.5	445.0	445.0
2822.0	5640.006	0.1023	77.73556	383.5	446.0	446.0
2828.0	5652.006	0.1023	77.73556	384.5	447.0	447.0
2836.0	5668.006	0.1022	77.65957	386.0	448.0	448.0
2842.0	5680.006	0.1022	77.65957	387.0	449.0	449.0
2848.0	5692.006	0.1022	77.65957	388.0	450.0	450.0
2857.0	5710.006	0.1021	77.58359	389.25	451.0	451.0
2862.0	5720.006	0.102	77.5076	390.5	452.0	452.0
2869.0	5734.006	0.102	77.5076	391.5	453.0	453.0
2876.0	5748.006	0.102	77.5076	392.5	454.0	454.0
2882.0	5760.006	0.1019	77.43161	393.75	455.0	455.0
2889.0	5774.006	0.1019	77.43161	394.75	456.0	456.0
2896.0	5788.006	0.1018	77.35562	395.75	457.0	457.0
2902.0	5800.006	0.1018	77.35562	396.75	458.0	458.0
2906.0	5808.006	0.1018	77.35562	397.75	459.0	459.0
2913.0	5822.006	0.1017	77.27964	398.75	461.0	460.0
2927.0	5850.006	0.1016	77.20365	399.75	461.0	462.0
2932.0	5860.006	0.1016	77.20365	401.0	463.0	462.0
2940.0	5876.006	0.1016	77.20365	402.0	463.0	464.0
2945.0	5886.006	0.1015	77.12766	403.0	464.0	464.0
2951.0	5898.006	0.1015	77.12766	404.0	465.0	465.0
2956.0	5908.006	0.1015	77.12766	405.0	466.0	466.0
2964.0	5924.006	0.1014	77.05167	406.25	467.0	467.0
2970.0	5936.006	0.1014	77.05167	407.25	468.0	468.0
2976.0	5948.006	0.1014	77.05167	408.25	469.0	469.0
2982.0	5960.006	0.1013	76.97568	409.25	470.0	470.0
2987.0	5970.006	0.1013	76.97568	410.25	471.0	471.0
2993.0	5982.006	0.1012	76.8997	411.25	472.0	472.0
3002.0	6000.006	0.1012	76.8997	412.25	473.0	473.0
3007.0	6010.006	0.1012	76.8997	413.25	474.0	474.0
3014.0	6024.006	0.1011	76.82371	414.25	474.0	475.0
3019.0	6034.006	0.1011	76.82371	415.25	475.0	476.0
3024.0	6044.006	0.1011	76.82371	416.25	477.0	476.0
3033.0	6062.006	0.101	76.74772	417.25	477.0	478.0
3037.0	6070.006	0.101	76.74772	418.25	478.0	478.0
3042.0	6080.006	0.101	76.74772	419.5	479.0	479.0
3050.0	6096.006	0.1009	76.67173	420.5	480.0	480.0
3056.0	6108.006	0.1009	76.67173	421.5	481.0	481.0
3061.0	6118.006	0.1009	76.67173	422.5	482.0	482.0
3068.0	6132.006	0.1008	76.59574	423.5	483.0	483.0
3074.0	6144.006	0.1007	76.51976	424.5	483.0	484.0
3078.0	6152.006	0.1007	76.51976	425.5	485.0	484.0
3088.0	6172.006	0.1007	76.51976	426.5	485.0	486.0
3093.0	6182.006	0.1007	76.51976	427.5	486.0	487.0
3097.0	6190.006	0.1007	76.51976	428.5	487.0	487.0
3104.0	6204.008	0.1006	76.44377	429.5	488.0	488.0
3109.0	6216.064	0.1006	76.44377	430.5	489.0	489.0
3114.0	6226.064	0.1005	76.36778	431.5	490.0	490.0
3121.0	6240.064	0.1005	76.36778	432.5	491.0	491.0
3128.0	6254.064	0.1005	76.36778	433.5	492.0	492.0
3134.0	6266.064	0.1004	76.29179	434.75	493.0	493.0
3140.0	6278.064	0.1004	76.29179	435.75	494.0	494.0
3146.0	6290.064	0.1003	76.21581	436.75	495.0	495.0
3151.0	6300.064	0.1003	76.21581	437.75	495.0	495.0
3158.0	6314.064	0.1003	76.21581	438.75	496.0	496.0
3164.0	6326.064	0.1002	76.13982	439.75	497.0	497.0
3169.0	6336.064	0.1002	76.13982	440.75	498.0	498.0
3177.0	6352.064	0.1002	76.13982	441.75	499.0	499.0
3182.0	6362.064	0.1002	76.13982	442.75	500.0	500.0
3187.0	6372.064	0.1001	76.06383	443.75	501.0	501.0
3194.0	6386.064	0.1001	76.06383	444.75	502.0	502.0
3200.0	6398.064	0.1	75.98784	445.75	503.0	503.0
3207.0	6412.064	0.1	75.98784	446.75	504.0	504.0
3213.0	6424.064	0.1	75.98784	447.75	505.0	505.0
3220.0	6438.064	0.0999	75.91185	448.75	506.0	506.0
3225.0	6448.064	0.0999	75.91185	449.75	506.0	507.0
3232.0	6462.066	0.0999	75.91185	450.75	508.0	508.0
3240.0	6478.066	0.0999	75.91185	451.75	508.0	509.0
3246.0	6490.066	0.0998	75.83587	453.0	510.0	510.0
3250.0	6498.066	0.0998	75.83587	454.0	510.0	510.0
3257.0	6512.066	0.0998	75.83587	455.0	511.0	511.0
3263.0	6524.066	0.0997	75.75988	456.0	512.0	512.0
3269.0	6536.066	0.0997	75.75988	457.0	513.0	513.0
3275.0	6548.066	0.0996	75.68389	458.0	514.0	514.0
3282.0	6562.066	0.0996	75.68389	459.0	515.0	515.0
3289.0	6576.066	0.0996	75.68389	460.25	516.0	516.0
3294.0	6586.066	0.0995	75.6079	461.25	517.0	517.0
3301.0	6600.066	0.0995	75.6079	462.25	518.0	518.0
3307.0	6612.066	0.0995	75.6079	463.25	519.0	519.0
3313.0	6624.066	0.0994	75.53191	464.25	519.0	520.0
3319.0	6636.066	0.0994	75.53191	465.25	521.0	521.0
3326.0	6650.066	0.0994	75.53191	466.25	521.0	522.0
3331.0	6660.066	0.0994	75.53191	467.25	522.0	522.0
3337.0	6672.066	0.0993	75.45593	468.25	523.0	523.0
3344.0	6686.066	0.0993	75.45593	469.25	524.0	524.0
3349.0	6696.066	0.0992	75.37994	470.25	525.0	525.0
3356.0	6710.066	0.0992	75.37994	471.25	526.0	526.0
3364.0	6726.066	0.0992	75.37994	472.25	527.0	527.0
3371.0	6740.066	0.0991	75.30395	473.5	528.0	528.0
3376.0	6750.066	0.0991	75.30395	474.5	529.0	529.0
3383.0	6764.066	0.0991	75.30395	475.5	530.0	530.0
3390.0	6778.066	0.099	75.22796	476.75	531.0	531.0
3396.0	6790.066	0.099	75.22796	478.0	532.0	532.0
3403.0	6804.066	0.099	75.22796	479.0	533.0	533.0
3409.0	6816.066	0.099	75.22796	480.0	534.0	534.0
3418.0	6834.066	0.0989	75.15198	481.0	535.0	535.0
3423.0	6844.066	0.0989	75.15198	482.0	536.0	536.0
3428.0	6854.066	0.0989	75.15198	483.0	537.0	537.0
3434.0	6866.066	0.0988	75.07599	484.0	538.0	538.0
3443.0	6884.066	0.0988	75.07599	485.0	539.0	539.0
3447.0	6892.066	0.0988	75.07599	486.0	540.0	540.0
3453.0	6904.066	0.0987	75.0	487.0	541.0	541.0
3459.0	6916.066	0.0987	75.0	488.0	541.0	542.0
3467.0	6932.066	0.0987	75.0	489.25	543.0	543.0
3473.0	6944.066	0.0987	75.0	490.25	544.0	544.0
3478.0	6954.066	0.0986	74.92401	491.25	544.0	544.0
3484.0	6966.066	0.0986	74.92401	492.25	545.0	545.0
3493.0	6984.066	0.0986	74.92401	493.25	546.0	547.0
3499.0	6996.066	0.0985	74.84802	494.25	547.0	548.0
3503.0	7004.066	0.0985	74.84802	495.25	548.0	548.0
3511.0	7020.066	0.0985	74.84802	496.25	549.0	549.0
3517.0	7032.066	0.0985	74.84802	497.25	550.0	550.0
3521.0	7040.066	0.0985	74.84802	498.25	550.0	551.0
3527.0	7052.066	0.0984	74.77204	499.25	552.0	552.0
3534.0	7066.066	0.0984	74.77204	500.25	552.0	553.0
3541.0	7080.066	0.0984	74.77204	501.25	553.0	554.0
3548.0	7094.066	0.0983	74.69605	502.5	555.0	555.0
3553.0	7104.066	0.0983	74.69605	503.5	556.0	556.0
3563.0	7124.066	0.0983	74.69605	504.5	556.0	557.0
3567.0	7132.066	0.0983	74.69605	505.5	558.0	558.0
3575.0	7148.066	0.0982	74.62006	506.75	559.0	559.0
3583.0	7164.066	0.0982	74.62006	507.75	560.0	560.0
3587.0	7172.066	0.0982	74.62006	508.75	561.0	561.0
3591.0	7180.066	0.0982	74.62006	509.75	562.0	561.0
3600.0	7198.066	0.0982	74.62006	510.75	562.0	563.0
3605.0	7208.066	0.0981	74.54407	511.75	563.0	563.0
3610.0	7218.066	0.0981	74.54407	512.75	564.0	564.0
3616.0	7230.066	0.0981	74.54407	513.75	565.0	565.0
3624.0	7246.066	0.098	74.46809	514.75	566.0	566.0
3631.0	7260.066	0.098	74.46809	515.75	567.0	567.0
3637.0	7272.066	0.098	74.46809	517.0	568.0	568.0
3643.0	7284.066	0.098	74.46809	518.0	569.0	569.0
3652.0	7302.066	0.0979	74.3921	519.0	570.0	570.0
3656.0	7310.066	0.0979	74.3921	520.0	571.0	571.0
3662.0	7322.066	0.0979	74.3921	521.0	572.0	572.0
3670.0	7338.066	0.0979	74.3921	522.0	573.0	573.0
3678.0	7354.066	0.0978	74.31611	523.0	574.0	574.0
3683.0	7364.066	0.0978	74.31611	524.25	575.0	575.0
3688.0	7374.066	0.0978	74.31611	525.25	576.0	576.0
3700.0	7398.066	0.0978	74.31611	526.5	577.0	578.0
3704.0	7406.066	0.0977	74.24012	527.5	578.0	578.0
3709.0	7416.066	0.0977	74.24012	528.5	579.0	579.0
3717.0	7432.066	0.0977	74.24012	529.5	580.0	580.0
3724.0	7446.066	0.0977	74.24012	530.5	581.0	581.0
3729.0	7456.066	0.0976	74.16413	531.75	582.0	582.0
3736.0	7470.066	0.0977	74.24012	532.75	583.0	583.0
3743.0	7484.066	0.0976	74.16413	534.0	584.0	584.0
3748.0	7494.066	0.0976	74.16413	535.0	585.0	585.0
3754.0	7506.066	0.0976	74.16413	536.0	586.0	586.0
3762.0	7522.066	0.0976	74.16413	537.0	586.0	587.0
3768.0	7534.066	0.0975	74.08815	538.0	588.0	588.0
3776.0	7550.066	0.0975	74.08815	539.0	589.0	589.0
3783.0	7564.066	0.0975	74.08815	540.0	590.0	590.0
3788.0	7574.066	0.0975	74.08815	541.0	591.0	591.0
3795.0	7588.066	0.0974	74.01216	542.0	592.0	592.0
3801.0	7600.066	0.0974	74.01216	543.0	593.0	593.0
3808.0	7614.066	0.0974	74.01216	544.0	594.0	594.0
3815.0	7628.066	0.0974	74.01216	545.0	595.0	595.0
3823.0	7644.066	0.0974	74.01216	546.0	596.0	596.0
3827.0	7652.066	0.0973	73.93617	547.0	597.0	597.0
3834.0	7666.066	0.0973	73.93617	548.0	598.0	598.0
3842.0	7682.066	0.0973	73.93617	549.0	598.0	599.0
3848.0	7694.066	0.0973	73.93617	550.0	599.0	600.0
3852.0	7702.066	0.0973	73.93617	551.25	599.0	600.0
3856.0	7710.066	0.0973	73.93617	553.0	601.0	601.0
3860.0	7718.066	0.0972	73.86018	554.25	602.0	602.0
3875.0	7748.066	0.0972	73.86018	555.25	603.0	604.0
3880.0	7758.066	0.0972	73.86018	556.25	604.0	605.0
3884.0	7766.066	0.0972	73.86018	557.25	605.0	605.0
3893.0	7784.066	0.0972	73.86018	558.25	606.0	607.0
3900.0	7798.066	0.0971	73.78419	559.25	607.0	608.0
3905.0	7808.066	0.0971	73.78419	560.25	608.0	608.0
3910.0	7818.066	0.0971	73.78419	561.25	609.0	609.0
3920.0	7838.066	0.0971	73.78419	562.5	610.0	611.0
3926.0	7850.066	0.0971	73.78419	563.5	611.0	612.0
3933.0	7864.066	0.097	73.70821	564.5	613.0	613.0
3941.0	7880.066	0.097	73.70821	565.5	613.0	614.0
3946.0	7890.066	0.097	73.70821	566.5	614.0	615.0
3951.0	7900.066	0.097	73.70821	567.5	615.0	615.0
3958.0	7914.066	0.0969	73.63222	568.5	616.0	616.0
3965.0	7928.066	0.0969	73.63222	569.5	617.0	617.0
3971.0	7940.066	0.0969	73.63222	570.5	618.0	618.0
3976.0	7950.066	0.0969	73.63222	571.5	619.0	619.0
3984.0	7966.066	0.0969	73.63222	572.5	620.0	620.0
3990.0	7978.066	0.0969	73.63222	573.5	621.0	621.0
3995.0	7988.066	0.0969	73.63222	574.5	622.0	622.0
4002.0	8002.066	0.0968	73.55623	575.5	623.0	623.0
4009.0	8016.066	0.0968	73.55623	576.5	624.0	624.0
4014.0	8026.066	0.0968	73.55623	577.5	625.0	625.0
4020.0	8038.066	0.0968	73.55623	578.5	626.0	626.0
4029.0	8056.066	0.0967	73.48024	579.5	626.0	627.0
4033.0	8064.066	0.0967	73.48024	580.5	627.0	628.0
4040.0	8078.066	0.0967	73.48024	581.5	629.0	629.0
4049.0	8096.066	0.0967	73.48024	582.5	630.0	630.0
4056.0	8110.066	0.0966	73.40426	583.5	631.0	631.0
4062.0	8122.066	0.0967	73.48024	584.5	632.0	632.0
4068.0	8134.066	0.0966	73.40426	585.5	632.0	633.0
4074.0	8146.066	0.0966	73.40426	586.5	633.0	634.0
4079.0	8156.066	0.0966	73.40426	587.5	635.0	634.0
4087.0	8172.066	0.0966	73.40426	588.5	635.0	636.0
4092.0	8182.066	0.0966	73.40426	589.5	636.0	636.0
4098.0	8194.066	0.0966	73.40426	590.5	637.0	637.0
4108.0	8214.066	0.0965	73.32827	591.5	639.0	639.0
4113.0	8224.066	0.0965	73.32827	592.5	639.0	640.0
4118.0	8234.066	0.0965	73.32827	593.5	640.0	640.0
4128.0	8254.066	0.0965	73.32827	594.75	641.0	642.0
4132.0	8262.066	0.0965	73.32827	595.75	642.0	642.0
4139.0	8276.066	0.0964	73.25228	596.75	643.0	643.0
4144.0	8286.066	0.0965	73.32827	598.0	643.0	644.0
4148.0	8294.066	0.0964	73.25228	599.25	645.0	645.0
4154.0	8306.066	0.0964	73.25228	600.25	646.0	646.0
4162.0	8322.066	0.0964	73.25228	601.25	646.0	647.0
4168.0	8334.066	0.0964	73.25228	602.25	648.0	648.0
4174.0	8346.066	0.0963	73.17629	603.25	648.0	649.0
4180.0	8358.066	0.0963	73.17629	604.25	650.0	650.0
4190.0	8378.066	0.0963	73.17629	605.25	651.0	651.0
4197.0	8392.066	0.0963	73.17629	606.25	652.0	652.0
4202.0	8402.066	0.0962	73.1003	607.25	653.0	653.0
4211.0	8420.066	0.0962	73.1003	608.25	654.0	654.0
4217.0	8432.066	0.0962	73.1003	609.25	655.0	655.0
4223.0	8444.066	0.0962	73.1003	610.25	656.0	656.0
4231.0	8460.066	0.0962	73.1003	611.25	657.0	657.0
4237.0	8472.066	0.0962	73.1003	612.25	658.0	658.0
4243.0	8484.066	0.0962	73.1003	613.75	659.0	659.0
4256.0	8510.066	0.0961	73.02432	614.75	660.0	661.0
4261.0	8520.066	0.0961	73.02432	616.25	662.0	662.0
4268.0	8534.066	0.0961	73.02432	617.25	662.0	663.0
4278.0	8554.066	0.096	72.94833	618.25	664.0	664.0
4283.0	8564.066	0.096	72.94833	619.25	665.0	665.0
4288.0	8574.066	0.096	72.94833	620.25	666.0	666.0
4298.0	8594.066	0.096	72.94833	621.25	667.0	667.0
4304.0	8606.066	0.096	72.94833	622.25	667.0	668.0
4309.0	8616.066	0.096	72.94833	623.5	668.0	669.0
4321.0	8640.066	0.0959	72.87234	624.5	670.0	671.0
4325.0	8648.066	0.0959	72.87234	625.5	671.0	671.0
4330.0	8658.066	0.0959	72.87234	626.75	672.0	672.0
4334.0	8666.066	0.0959	72.87234	628.25	672.0	673.0
4338.0	8674.066	0.0959	72.87234	629.5	674.0	673.0
4354.0	8706.066	0.0958	72.79635	630.5	675.0	676.0
4359.0	8716.066	0.0958	72.79635	631.5	676.0	676.0
4367.0	8732.066	0.0958	72.79635	632.5	677.0	678.0
4372.0	8742.066	0.0958	72.79635	633.5	678.0	678.0
4376.0	8750.066	0.0958	72.79635	634.5	678.0	679.0
4392.0	8782.066	0.0957	72.72036	635.75	681.0	681.0
4396.0	8790.066	0.0957	72.72036	637.25	682.0	682.0
4403.0	8804.066	0.0957	72.72036	638.25	683.0	683.0
4412.0	8822.066	0.0957	72.72036	639.5	684.0	684.0
4416.0	8830.066	0.0957	72.72036	640.5	685.0	685.0
4429.0	8856.066	0.0956	72.64438	641.5	686.0	687.0
4433.0	8864.066	0.0956	72.64438	642.75	687.0	687.0
4438.0	8874.066	0.0956	72.64438	643.75	688.0	688.0
4451.0	8900.066	0.0956	72.64438	644.75	689.0	690.0
4456.0	8910.066	0.0956	72.64438	645.75	691.0	691.0
4462.0	8922.066	0.0956	72.64438	646.75	691.0	692.0
4466.0	8930.066	0.0955	72.56839	647.75	691.0	692.0
4472.0	8942.066	0.0955	72.56839	649.0	693.0	693.0
4477.0	8952.066	0.0955	72.56839	650.0	693.0	694.0
4481.0	8960.066	0.0955	72.56839	651.25	695.0	695.0
4488.0	8974.066	0.0955	72.56839	652.25	696.0	696.0
4498.0	8994.066	0.0954	72.4924	653.25	697.0	697.0
4502.0	9002.066	0.0954	72.4924	654.25	698.0	698.0
4514.0	9026.066	0.0954	72.4924	655.25	700.0	700.0
4523.0	9044.066	0.0954	72.4924	656.25	700.0	701.0
4529.0	9056.066	0.0954	72.4924	657.25	702.0	702.0
4534.0	9066.066	0.0954	72.4924	658.25	702.0	703.0
4542.0	9082.066	0.0953	72.41641	659.25	703.0	704.0
4555.0	9108.066	0.0953	72.41641	660.25	705.0	706.0
4561.0	9120.066	0.0953	72.41641	661.75	706.0	707.0
4567.0	9132.066	0.0953	72.41641	663.0	708.0	708.0
4578.0	9154.066	0.0952	72.34043	664.0	709.0	709.0
4583.0	9164.066	0.0952	72.34043	665.0	711.0	710.0
4590.0	9178.068	0.0952	72.34043	666.0	710.0	711.0
4596.0	9190.068	0.0952	72.34043	667.0	711.0	712.0
4603.0	9204.068	0.0952	72.34043	668.0	712.0	713.0
4607.0	9212.068	0.0951	72.26444	669.25	713.0	714.0
4611.0	9220.068	0.0951	72.26444	670.75	713.0	714.0
4622.0	9242.068	0.0951	72.26444	671.75	716.0	716.0
4629.0	9256.068	0.0951	72.26444	672.75	716.0	717.0
4633.0	9264.068	0.0951	72.26444	673.75	717.0	717.0
4647.0	9292.068	0.0951	72.26444	674.75	718.0	720.0
4651.0	9300.068	0.095	72.18845	675.75	720.0	720.0
4656.0	9310.068	0.095	72.18845	677.0	720.0	721.0
4666.0	9330.068	0.095	72.18845	678.0	722.0	722.0
4672.0	9342.068	0.095	72.18845	679.0	723.0	723.0
4677.0	9352.068	0.0949	72.11246	680.0	723.0	724.0
4689.0	9376.068	0.095	72.18845	681.25	725.0	726.0
4695.0	9388.068	0.0949	72.11246	682.75	727.0	727.0
4708.0	9414.068	0.0949	72.11246	683.75	728.0	729.0
4712.0	9422.068	0.0949	72.11246	684.75	728.0	729.0
4716.0	9430.068	0.0949	72.11246	685.75	729.0	730.0
4720.0	9438.068	0.0949	72.11246	686.75	731.0	730.0
4726.0	9450.068	0.0949	72.11246	687.75	731.0	731.0
4733.0	9464.068	0.0949	72.11246	688.75	731.0	732.0
4737.0	9472.068	0.0948	72.03647	690.0	733.0	733.0
4750.0	9498.068	0.0948	72.03647	691.0	735.0	735.0
4755.0	9508.068	0.0948	72.03647	692.0	736.0	736.0
4763.0	9524.068	0.0947	71.96049	693.0	737.0	737.0
4769.0	9536.068	0.0947	71.96049	694.0	737.0	738.0
4775.0	9548.068	0.0947	71.96049	695.0	739.0	739.0
4780.0	9558.068	0.0947	71.96049	696.0	740.0	739.0
4792.0	9582.068	0.0947	71.96049	697.0	741.0	741.0
4799.0	9596.068	0.0946	71.8845	698.5	742.0	742.0
4811.0	9620.068	0.0946	71.8845	699.5	743.0	744.0
4817.0	9632.068	0.0946	71.8845	701.25	744.0	745.0
4821.0	9640.068	0.0946	71.8845	702.5	745.0	746.0
4829.0	9656.068	0.0946	71.8845	703.75	747.0	747.0
4837.0	9672.068	0.0945	71.80851	704.75	748.0	748.0
4842.0	9682.068	0.0945	71.80851	706.0	748.0	749.0
4858.0	9714.068	0.0945	71.80851	707.25	751.0	751.0
4867.0	9732.068	0.0945	71.80851	708.25	752.0	752.0
4871.0	9740.068	0.0945	71.80851	709.25	753.0	753.0
4877.0	9752.068	0.0944	71.73252	710.25	754.0	754.0
4888.0	9774.068	0.0944	71.73252	711.25	755.0	756.0
4893.0	9784.068	0.0945	71.80851	712.5	756.0	756.0
4904.0	9806.068	0.0944	71.73252	713.5	757.0	758.0
4909.0	9816.068	0.0944	71.73252	714.5	758.0	759.0
4913.0	9824.068	0.0944	71.73252	716.0	758.0	759.0
4917.0	9832.068	0.0944	71.73252	717.25	761.0	760.0
4923.0	9844.068	0.0943	71.65653	718.5	761.0	761.0
4938.0	9874.068	0.0943	71.65653	719.5	764.0	763.0
4944.0	9886.068	0.0943	71.65653	720.5	763.0	764.0
4951.0	9900.068	0.0943	71.65653	721.5	766.0	765.0
4961.0	9920.068	0.0942	71.58055	722.75	766.0	767.0
4970.0	9938.068	0.0942	71.58055	723.75	768.0	768.0
4976.0	9950.068	0.0942	71.58055	725.0	769.0	769.0
4981.0	9960.068	0.0942	71.58055	726.0	770.0	770.0
4991.0	9980.068	0.0942	71.58055	727.0	771.0	771.0
4997.0	9992.068	0.0942	71.58055	728.25	771.0	772.0
5004.0	10006.068	0.0942	71.58055	729.25	772.0	773.0
5009.0	10016.068	0.0941	71.50456	730.5	773.0	774.0
5015.0	10028.068	0.0941	71.50456	731.5	775.0	775.0
5023.0	10044.068	0.0941	71.50456	732.5	776.0	776.0
5031.0	10060.068	0.0941	71.50456	733.5	777.0	777.0
5036.0	10070.068	0.0941	71.50456	734.5	778.0	778.0
5046.0	10090.068	0.0941	71.50456	735.5	778.0	779.0
5051.0	10100.068	0.094	71.42857	736.5	780.0	780.0
5064.0	10126.068	0.094	71.42857	737.5	782.0	782.0
5072.0	10142.068	0.094	71.42857	738.5	783.0	783.0
5076.0	10150.068	0.094	71.42857	739.75	784.0	784.0
5080.0	10158.068	0.094	71.42857	741.0	784.0	784.0
5084.0	10166.068	0.094	71.42857	742.0	785.0	785.0
5089.0	10176.068	0.094	71.42857	743.0	785.0	786.0
5096.0	10190.068	0.0939	71.35258	744.0	786.0	787.0
5108.0	10214.068	0.0939	71.35258	745.0	789.0	789.0
5112.0	10222.068	0.0939	71.35258	746.0	789.0	789.0
5121.0	10240.068	0.0939	71.35258	747.0	791.0	791.0
5127.0	10252.068	0.0939	71.35258	748.25	791.0	791.0
5145.0	10288.068	0.0938	71.2766	749.25	794.0	794.0
5150.0	10298.068	0.0938	71.2766	750.25	795.0	795.0
5158.0	10314.068	0.0938	71.2766	751.25	795.0	796.0
5163.0	10324.068	0.0938	71.2766	752.5	798.0	797.0
5167.0	10332.068	0.0938	71.2766	753.5	796.0	797.0
5171.0	10340.068	0.0938	71.2766	754.75	798.0	798.0
5175.0	10348.068	0.0937	71.20061	756.25	798.0	799.0
5194.0	10386.068	0.0937	71.20061	757.25	801.0	801.0
5202.0	10402.068	0.0937	71.20061	758.75	803.0	803.0
5212.0	10422.068	0.0937	71.20061	759.75	804.0	804.0
5218.0	10434.068	0.0936	71.12462	760.75	804.0	805.0
5223.0	10444.068	0.0937	71.20061	761.75	805.0	806.0
5231.0	10460.068	0.0936	71.12462	762.75	807.0	807.0
5237.0	10472.068	0.0936	71.12462	763.75	807.0	808.0
5241.0	10480.068	0.0936	71.12462	765.0	808.0	808.0
5245.0	10488.068	0.0936	71.12462	766.25	809.0	809.0
5257.0	10512.068	0.0936	71.12462	767.25	812.0	811.0
5276.0	10550.068	0.0935	71.04863	768.5	812.0	814.0
5280.0	10558.068	0.0935	71.04863	770.0	814.0	814.0
5295.0	10588.068	0.0935	71.04863	771.25	816.0	817.0
5300.0	10598.068	0.0935	71.04863	772.25	817.0	817.0
5305.0	10608.068	0.0935	71.04863	773.25	818.0	818.0
5310.0	10618.068	0.0935	71.04863	774.25	818.0	819.0
5315.0	10628.068	0.0934	70.97264	775.5	819.0	820.0
5319.0	10636.068	0.0935	71.04863	776.75	821.0	820.0
5336.0	10670.068	0.0934	70.97264	777.75	822.0	823.0
5342.0	10682.068	0.0934	70.97264	778.75	822.0	824.0
5357.0	10712.068	0.0934	70.97264	780.0	826.0	826.0
5363.0	10724.068	0.0933	70.89666	781.0	827.0	827.0
5371.0	10740.068	0.0933	70.89666	782.25	828.0	828.0
5377.0	10752.068	0.0933	70.89666	783.25	828.0	829.0
5381.0	10760.068	0.0933	70.89666	784.75	829.0	829.0
5385.0	10768.068	0.0933	70.89666	786.25	830.0	830.0
5399.0	10796.068	0.0933	70.89666	787.25	831.0	832.0
5405.0	10808.068	0.0932	70.82067	788.25	833.0	833.0
5414.0	10826.068	0.0932	70.82067	789.25	834.0	834.0
5424.0	10846.068	0.0932	70.82067	790.25	834.0	836.0
5433.0	10864.068	0.0932	70.82067	791.5	836.0	837.0
5438.0	10874.068	0.0932	70.82067	792.5	838.0	838.0
5445.0	10888.068	0.0931	70.74468	793.5	838.0	839.0
5449.0	10896.068	0.0932	70.82067	794.75	840.0	840.0
5453.0	10904.068	0.0932	70.82067	796.5	840.0	840.0
5457.0	10912.068	0.0931	70.74468	797.5	842.0	841.0
5475.0	10948.068	0.0931	70.74468	798.0	842.0	844.0
5479.0	10956.068	0.0931	70.74468	799.5	845.0	844.0
5497.0	10992.068	0.0931	70.74468	800.25	846.0	847.0
5502.0	11002.068	0.093	70.66869	801.5	848.0	848.0
5509.0	11016.068	0.093	70.66869	802.75	848.0	849.0
5514.0	11026.068	0.093	70.66869	803.75	848.0	849.0
5519.0	11036.068	0.093	70.66869	805.0	849.0	850.0
5530.0	11058.068	0.093	70.66869	806.0	851.0	852.0
5536.0	11070.068	0.093	70.66869	807.0	853.0	853.0
5544.0	11086.068	0.0929	70.59271	808.0	854.0	854.0
5563.0	11124.068	0.0929	70.59271	809.0	855.0	857.0
5567.0	11132.068	0.0929	70.59271	810.75	856.0	857.0
5571.0	11140.068	0.0929	70.59271	812.5	857.0	858.0
5580.0	11158.068	0.0929	70.59271	813.0	859.0	859.0
5589.0	11176.068	0.0929	70.59271	814.75	860.0	861.0
5606.0	11210.068	0.0928	70.51672	815.75	862.0	863.0
5611.0	11220.068	0.0928	70.51672	817.0	863.0	864.0
5617.0	11232.068	0.0928	70.51672	818.0	865.0	865.0
5627.0	11252.068	0.0927	70.44073	819.0	866.0	866.0
5632.0	11262.068	0.0927	70.44073	820.5	866.0	867.0
5636.0	11270.068	0.0928	70.51672	821.75	868.0	868.0
5640.0	11278.068	0.0928	70.51672	822.75	869.0	868.0
5660.0	11318.068	0.0927	70.44073	823.75	871.0	871.0
5665.0	11328.068	0.0927	70.44073	824.75	871.0	872.0
5677.0	11352.068	0.0927	70.44073	825.75	874.0	874.0
5683.0	11364.068	0.0926	70.36474	826.75	875.0	875.0
5690.0	11378.068	0.0926	70.36474	828.25	875.0	876.0
5694.0	11386.068	0.0926	70.36474	829.25	876.0	876.0
5699.0	11396.068	0.0926	70.36474	830.25	878.0	877.0
5710.0	11418.068	0.0926	70.36474	831.25	878.0	879.0
5715.0	11428.068	0.0926	70.36474	832.25	878.0	879.0
5725.0	11448.068	0.0925	70.28875	833.25	880.0	881.0
5742.0	11482.068	0.0925	70.28875	834.25	882.0	884.0
5746.0	11490.068	0.0925	70.28875	835.75	884.0	884.0
5750.0	11498.068	0.0925	70.28875	837.0	884.0	885.0
5754.0	11506.068	0.0925	70.28875	838.25	885.0	885.0
5769.0	11536.068	0.0924	70.21277	839.25	888.0	888.0
5776.0	11550.068	0.0925	70.28875	840.25	889.0	889.0
5782.0	11562.068	0.0924	70.21277	841.25	888.0	890.0
5791.0	11580.068	0.0924	70.21277	842.25	890.0	891.0
5800.0	11598.068	0.0924	70.21277	843.25	892.0	892.0
5806.0	11610.068	0.0924	70.21277	844.25	893.0	893.0
5811.0	11620.068	0.0923	70.13678	845.75	893.0	894.0
5818.0	11634.068	0.0924	70.21277	846.75	895.0	895.0
5825.0	11648.068	0.0923	70.13678	848.0	896.0	896.0
5837.0	11672.068	0.0923	70.13678	849.0	899.0	898.0
5850.0	11698.068	0.0923	70.13678	850.25	899.0	900.0
5854.0	11706.068	0.0923	70.13678	851.25	900.0	900.0
5855.0	11708.068	0.0923	70.13678	851.5	901.0	900.0