File: charts/20230801/TGA/INSATURADAS/ZCFA_fixed.txt
05/07/2023 14:07:08
User name: Gabs
Comments: programa 3
Time (min)	Weight (mg)	Deriv. Weight (%/°C)	Relative Mass (%)	Temperature (°C)	Balance Purge Flow (mL/min)	Sample Purge Flow (mL/min)
0.001533333	6.59986	0.05500293	100.0	22.98286	40.00727	60.01988
0.1208333	6.59737	0.05530166	99.9623	23.06722	40.03125	60.01316
0.2458334	6.593782	0.05535745	99.9079	23.41076	39.99495	59.99172
0.3708334	6.592811	0.0558394	99.8932	24.03514	40.02206	60.01512
0.4958334	6.590928	0.05681584	99.8647	24.89327	39.98785	59.99575
0.6208334	6.586345	0.05830593	99.7952	25.93002	40.01354	60.02818
0.7458334	6.581595	0.05990974	99.7233	27.08568	39.98022	59.99614
0.8708332	6.577712	0.06199668	99.6644	28.30879	40.04094	59.97406
0.9958332	6.572778	0.06675898	99.5897	29.56015	40.00269	59.99524
1.120833	6.566036	0.07073725	99.4875	30.81443	39.98938	59.96422
1.245833	6.559701	0.0734797	99.3915	32.06518	39.98825	59.9917
1.370833	6.554095	0.0754545	99.3066	33.30148	40.01926	59.96429
1.495833	6.547963	0.07631931	99.2137	34.52234	40.03111	60.01476
1.620833	6.54132	0.07622772	99.113	35.73393	39.97087	60.01534
1.745833	6.534995	0.0754907	99.0172	36.93588	39.98655	60.01582
1.870833	6.529464	0.0744533	98.9334	38.14118	39.99822	59.98324
1.995833	6.52356	0.07317652	98.8439	39.34024	40.01748	60.03997
2.120834	6.517504	0.07172413	98.7522	40.53972	39.97837	59.9841
2.245834	6.511924	0.0702515	98.6676	41.73889	40.00936	59.96437
2.370834	6.50672	0.06883178	98.5888	42.94326	39.97922	59.97936
2.495834	6.501256	0.0676555	98.506	44.14616	40.00356	59.97632
2.620834	6.495782	0.06662831	98.423	45.35611	40.00824	60.01464
2.745834	6.490538	0.06572571	98.3436	46.56615	39.99832	60.01873
2.870834	6.485644	0.0650646	98.2694	47.7816	39.99903	60.01887
2.995834	6.480151	0.06456626	98.1862	48.9983	40.02322	60.0001
3.120834	6.474934	0.06421376	98.1071	50.21864	39.98103	59.99234
3.245834	6.469837	0.06395398	98.0299	51.4435	39.9831	59.98215
3.370834	6.464789	0.06377121	97.9534	52.66843	39.99321	59.98457
3.495834	6.459555	0.06360623	97.8741	53.90055	40.02586	59.99555
3.620834	6.454312	0.06362964	97.7947	55.12793	39.99128	59.98968
3.745834	6.449332	0.06377688	97.7192	56.36306	40.00386	60.015
3.870834	6.444094	0.06401006	97.6399	57.59544	39.99141	60.02437
3.995834	6.438858	0.064399	97.5605	58.83078	39.99088	59.99558
4.120834	6.433566	0.06497008	97.4803	60.07298	40.02224	59.98918
4.245834	6.428285	0.06569432	97.4003	61.3104	39.97145	59.9975
4.370834	6.422944	0.0664671	97.3194	62.5521	40.00414	59.99551
4.495834	6.417378	0.06753036	97.2351	63.7995	39.9821	59.98286
4.620834	6.411676	0.06877493	97.1487	65.0412	39.99803	60.03464
4.745834	6.406211	0.0703188	97.0659	66.28681	40.01501	60.03539
4.870834	6.40039	0.0719982	96.9777	67.53557	39.98067	60.03666
4.995834	6.394296	0.07387081	96.8853	68.7795	39.99829	59.9873
5.120834	6.388276	0.07611413	96.7941	70.02621	40.02944	60.00522
5.245834	6.381894	0.07868485	96.6974	71.27463	40.04968	60.02729
5.370834	6.375379	0.0815428	96.5987	72.5228	39.94585	59.97526
5.495834	6.368682	0.08470934	96.4972	73.77063	39.98748	59.98835
5.620834	6.361488	0.08834132	96.3882	75.02062	40.0053	59.98308
5.745834	6.354071	0.09229351	96.2758	76.26849	40.00271	59.99291
5.870834	6.346371	0.09668476	96.1592	77.51949	39.98508	60.00054
5.995834	6.33815	0.1015273	96.0346	78.7711	40.01042	60.00624
6.120834	6.329641	0.1065892	95.9057	80.02076	40.0035	59.98996
6.245834	6.320751	0.1118467	95.771	81.27044	39.99262	60.00789
6.370834	6.31118	0.1173976	95.626	82.52289	40.01838	60.02974
6.495834	6.301326	0.1232005	95.4767	83.77642	39.9703	60.01472
6.620834	6.290952	0.1290663	95.3195	85.02731	39.99909	59.99482
6.745834	6.279991	0.1348952	95.1534	86.27953	40.00869	60.01424
6.870834	6.26877	0.1405834	94.9834	87.53112	39.9739	60.01145
6.995834	6.25667	0.1461835	94.8	88.78368	40.00266	60.00459
7.120834	6.244366	0.1515487	94.6136	90.03528	39.99796	59.97632
7.245834	6.231574	0.1565225	94.4198	91.28852	40.00319	59.99482
7.370834	6.21838	0.1610869	94.2199	92.5412	39.98697	59.97826
7.495834	6.204916	0.1650746	94.0159	93.79434	39.99735	59.99968
7.620834	6.190967	0.1685361	93.8045	95.04749	40.02484	60.0379
7.745834	6.176816	0.1711884	93.5901	96.29844	40.00554	60.01426
7.870834	6.162385	0.1730142	93.3715	97.55343	39.99976	60.04605
7.995834	6.148015	0.1741151	93.1537	98.80689	39.995	60.00168
8.120834	6.133384	0.1743764	92.932	100.0592	40.0197	59.99721
8.245834	6.118965	0.1736377	92.7136	101.3141	40.00506	60.02041
8.370834	6.104514	0.1720055	92.4946	102.5653	39.9899	59.99784
8.495834	6.09023	0.1693233	92.2782	103.8209	39.97402	59.98909
8.620834	6.076176	0.1657653	92.0652	105.0722	39.99116	59.99708
8.745834	6.062574	0.161107	91.8591	106.326	39.99247	59.98828
8.870834	6.049368	0.1555603	91.659	107.5796	39.99911	59.99463
8.995834	6.036612	0.1493252	91.4658	108.8322	39.99102	60.01349
9.120834	6.024498	0.1426281	91.2822	110.0864	39.97341	60.00351
9.245834	6.01302	0.1355379	91.1083	111.3381	40.01952	59.9791
9.370834	6.002068	0.128158	90.9424	112.5914	40.00311	60.00068
9.495834	5.991812	0.1207344	90.787	113.843	39.97992	60.00098
9.620834	5.982138	0.1134844	90.6404	115.0961	39.9932	60.00726
9.745834	5.973072	0.1063642	90.503	116.3466	39.98687	60.01824
9.870834	5.96466	0.09966475	90.3756	117.5966	40.01878	59.99462
9.995834	5.956736	0.09316955	90.2555	118.849	39.99984	60.00754
10.12083	5.949334	0.08711819	90.1433	120.1	39.98037	60.01406
10.24583	5.942461	0.0816235	90.0392	121.352	40.01753	59.9981
10.37083	5.935934	0.07655922	89.9403	122.6035	40.00195	60.00488
10.49584	5.930044	0.07189741	89.8511	123.852	40.02903	59.98765
10.62084	5.924224	0.06770053	89.7629	125.1031	40.03802	59.98224
10.74584	5.918813	0.0639282	89.6809	126.3549	39.98994	60.01596
10.87084	5.91375	0.0606206	89.6042	127.6045	39.99306	59.98638
10.99584	5.909006	0.05738609	89.5323	128.854	40.00754	59.96943
11.12084	5.904293	0.05439326	89.4609	130.108	39.98722	60.0466
11.24584	5.899973	0.05166656	89.3954	131.3579	40.01145	60.00576
11.37084	5.895838	0.049262	89.3328	132.6092	40.00786	60.00943
11.49584	5.891934	0.04694361	89.2736	133.8627	39.99308	60.02481
11.62084	5.888144	0.04474056	89.2162	135.1138	39.98876	60.0008
11.74584	5.884531	0.04274306	89.1615	136.3638	39.98463	59.98325
11.87084	5.881129	0.04099078	89.1099	137.6136	39.99971	59.98709
11.99584	5.877807	0.0393315	89.0596	138.8666	39.98685	60.01826
12.12084	5.874722	0.0377359	89.0128	140.1158	40.02217	59.97553
12.24584	5.871594	0.03636672	88.9654	141.3669	39.99434	60.03691
12.37084	5.86868	0.0352253	88.9213	142.6156	39.94763	59.97831
12.49584	5.865828	0.03404228	88.8781	143.8669	39.9877	59.99746
12.62084	5.863161	0.032968	88.8377	145.1156	40.02578	59.98385
12.74584	5.860406	0.0317921	88.7959	146.3682	39.98883	59.98586
12.87083	5.857866	0.03077993	88.7574	147.6185	40.01635	59.98974
12.99583	5.85535	0.02983632	88.7193	148.8706	40.03067	59.97961
13.12083	5.85298	0.02895703	88.6834	150.1183	40.01306	59.9941
13.24583	5.850657	0.02801528	88.6482	151.37	40.01071	60.01556
13.37083	5.848326	0.02733369	88.6129	152.6209	40.01191	60.00835
13.49583	5.84606	0.02658646	88.5785	153.8718	40.00952	60.00234
13.62083	5.843952	0.0259187	88.5466	155.1244	39.99685	59.99615
13.74583	5.841768	0.02527975	88.5135	156.3762	39.99686	60.00266
13.87083	5.839746	0.02467646	88.4829	157.6257	39.98623	59.98609
13.99583	5.837838	0.02404531	88.454	158.8776	40.02605	60.0071
14.12083	5.835783	0.02347699	88.4228	160.1281	40.00766	60.03299
14.24583	5.833836	0.02282856	88.3933	161.3818	39.98581	60.02979
14.37083	5.832021	0.02235045	88.3658	162.6306	40.0007	60.00222
14.49583	5.83022	0.02181203	88.3385	163.882	40.03861	59.98824
14.62083	5.828445	0.02141443	88.3116	165.132	39.99478	60.019
14.74583	5.826685	0.02106426	88.285	166.3808	40.0007	59.99535
14.87083	5.82496	0.02065202	88.2588	167.6326	40.0009	60.02224
14.99583	5.82332	0.02026209	88.234	168.8838	39.98875	59.97273
15.12083	5.821496	0.01985965	88.2064	170.1334	40.00408	60.0099
15.24583	5.819991	0.01947091	88.1836	171.3833	39.98946	60.01381
15.37083	5.818445	0.01905084	88.1601	172.6344	39.9842	60.02366
15.49583	5.816889	0.01855116	88.1366	173.8852	39.97887	59.97564
15.62083	5.815306	0.01824692	88.1126	175.1376	39.98834	59.98637
15.74583	5.81387	0.01810724	88.0908	176.3873	40.00762	59.9943
15.87083	5.812466	0.01786529	88.0695	177.6372	39.99288	59.99133
15.99583	5.810991	0.01748026	88.0472	178.8878	39.99937	59.98375
16.12083	5.809456	0.01711862	88.0239	180.1398	40.00502	59.97179
16.24583	5.807994	0.01686231	88.0018	181.3873	39.9944	60.00451
16.37083	5.806658	0.01650256	87.9815	182.6386	40.00422	60.00734
16.49583	5.805504	0.01615833	87.964	183.8901	40.01316	59.99199
16.62083	5.8041	0.01583075	87.9428	185.1378	39.97186	59.99671
16.74583	5.802738	0.01563051	87.9221	186.3844	40.00981	59.98687
16.87083	5.80145	0.01546237	87.9026	187.6365	39.99876	60.02576
16.99583	5.800174	0.01516784	87.8833	188.8855	40.01089	60.02502
17.12083	5.798988	0.01487024	87.8653	190.1356	39.9845	60.00656
17.24583	5.797722	0.01462771	87.8461	191.3868	39.99655	60.0165
17.37083	5.7966	0.01423862	87.8291	192.6359	40.00684	59.994
17.49583	5.795368	0.01398635	87.8105	193.8857	39.99262	59.98444
17.62083	5.794201	0.0137023	87.7928	195.1319	39.98296	59.99118
17.74583	5.79303	0.0134748	87.775	196.3819	39.99128	59.97646
17.87083	5.792072	0.01333579	87.7605	197.6328	40.01596	60.01108
17.99583	5.790938	0.01311623	87.7433	198.8824	40.0253	60.01506
18.12083	5.789852	0.01296054	87.7269	200.1311	40.02174	60.0136
18.24583	5.788874	0.01276117	87.7121	201.3802	39.99868	59.95844
18.37083	5.78771	0.01254308	87.6944	202.632	39.99061	60.00999
18.49583	5.786635	0.01236294	87.6781	203.8816	39.98889	60.04218
18.62083	5.785684	0.01215465	87.6637	205.1297	40.00406	60.00332
18.74583	5.784788	0.01206096	87.6502	206.3791	40.00032	59.98054
18.87083	5.783672	0.01194668	87.6333	207.6289	40.02219	60.00838
18.99583	5.78273	0.01184846	87.619	208.8794	40.01215	60.00029
19.12083	5.781729	0.01173204	87.6038	210.1273	39.99512	59.99306
19.24583	5.780806	0.01149854	87.5898	211.377	40.00446	59.99868
19.37083	5.77991	0.01116265	87.5763	212.6267	40.04194	60.00332
19.49583	5.77898	0.01098034	87.5622	213.8745	39.99797	60.00222
19.62083	5.778064	0.0107937	87.5483	215.1246	40.02172	60.02306
19.74583	5.777203	0.0105814	87.5352	216.375	39.99489	60.02058
19.87083	5.77637	0.01046338	87.5226	217.6246	40.02517	60.00854
19.99583	5.775401	0.01043394	87.5079	218.876	39.99273	60.01394
20.12083	5.7747	0.01036862	87.4973	220.1258	40.0093	59.99734
20.24583	5.773789	0.01036401	87.4835	221.3734	39.97262	59.97468
20.37083	5.772902	0.01016707	87.4701	222.6216	40.00708	59.98888
20.49583	5.772052	0.01009234	87.4572	223.8701	39.98198	60.00292
20.62083	5.771282	0.01008654	87.4455	225.1215	39.99443	60.02377
20.74583	5.770415	0.009951837	87.4324	226.3696	39.98724	60.00876
20.87083	5.769644	0.00988175	87.4207	227.6204	40.02042	59.98924
20.99583	5.768818	0.009830298	87.4082	228.8686	39.99161	60.00578
21.12083	5.767981	0.009791905	87.3955	230.1166	40.02324	59.98954
21.24583	5.767249	0.0096755	87.3844	231.3656	40.02317	60.0362
21.37083	5.76632	0.009434522	87.3703	232.6167	39.979	59.98801
21.49583	5.765702	0.009228282	87.361	233.8639	39.99363	60.00491
21.62083	5.764934	0.009038361	87.3493	235.1138	40.017	60.00572
21.74583	5.764135	0.008932791	87.3372	236.3624	40.0203	60.02461
21.87083	5.763476	0.008812264	87.3272	237.6102	39.99312	59.99966
21.99583	5.762719	0.008808014	87.3158	238.8608	39.99896	59.99714
22.12083	5.762011	0.008869797	87.305	240.1108	40.03056	59.97518
22.24583	5.761297	0.008821863	87.2942	241.3579	39.96362	59.99101
22.37083	5.76055	0.008790194	87.2829	242.606	40.00961	59.99377
22.49583	5.759768	0.008720562	87.2711	243.8543	39.99344	60.01507
22.62083	5.759166	0.008675754	87.2619	245.1037	40.00542	59.95594
22.74583	5.758342	0.008563453	87.2495	246.3528	40.00142	60.02737
22.87083	5.757613	0.008441876	87.2384	247.6006	40.01614	59.97784
22.99583	5.756997	0.008261772	87.2291	248.8506	39.99504	60.03802
23.12083	5.75625	0.008250732	87.2178	250.0994	40.0274	59.99182
23.24583	5.75568	0.008138819	87.2091	251.3502	39.993	59.99294
23.37083	5.755012	0.008168344	87.199	252.597	40.01012	59.9779
23.49583	5.75438	0.008202843	87.1894	253.8467	40.01338	59.99937
23.62083	5.753524	0.008135358	87.1765	255.0975	40.01354	60.03515
23.74583	5.753062	0.008033738	87.1695	256.3457	39.9996	59.98796
23.87083	5.752141	0.007976622	87.1555	257.5935	40.00181	59.9919
23.99583	5.751676	0.007764942	87.1485	258.8443	40.00984	59.98037
24.12083	5.751062	0.007624306	87.1392	260.0936	40.0229	59.97669
24.24583	5.750419	0.007612466	87.1294	261.3453	39.9845	59.98944
24.37083	5.749818	0.007610445	87.1203	262.5942	40.00406	60.0071
24.49583	5.749129	0.007647193	87.1099	263.8424	39.99812	60.00278
24.62083	5.748515	0.007582158	87.1006	265.0918	39.9626	59.9773
24.74583	5.7478	0.007442024	87.0897	266.3407	39.98826	60.0085
24.87083	5.74727	0.007359872	87.0817	267.591	39.99495	60.02593
24.99583	5.746636	0.007177741	87.0721	268.84	40.02044	59.99687
25.12083	5.746068	0.007134849	87.0635	270.0896	40.01898	60.03072
25.24583	5.745508	0.007008264	87.055	271.3404	39.96476	60.01386
25.37083	5.744876	0.006981513	87.0454	272.5896	40.01013	59.99316
25.49583	5.744342	0.007014224	87.0373	273.8407	40.02378	59.98526
25.62083	5.743766	0.007058865	87.0286	275.0906	40.01014	60.0032
25.74583	5.74323	0.007144878	87.0205	276.3418	39.96512	59.96768
25.87083	5.742601	0.007077024	87.011	277.5875	39.97916	59.98342
25.99583	5.741991	0.007066728	87.0017	278.8389	40.00194	60.00766
26.12083	5.741412	0.007077941	86.9929	280.0878	39.99674	60.01101
26.24583	5.74082	0.00694971	86.984	281.3373	40.02238	59.99714
26.37083	5.740286	0.006816531	86.9759	282.5883	40.00105	59.98946
26.49583	5.739761	0.006788189	86.9679	283.8359	40.00574	59.97651
26.62083	5.739166	0.006636248	86.9589	285.087	39.99297	59.98752
26.74583	5.738632	0.00672099	86.9508	286.3352	39.97341	60.01695
26.87083	5.738	0.006581674	86.9412	287.5832	39.98512	59.98838
26.99583	5.73755	0.006679147	86.9344	288.8358	40.02595	60.02438
27.12083	5.736956	0.006733359	86.9254	290.0868	39.99786	60.0109
27.24583	5.73645	0.006825138	86.9178	291.3341	39.98795	59.99414
27.37083	5.73584	0.006898168	86.9085	292.5829	40.04506	60.0094
27.49583	5.73525	0.007010235	86.8996	293.8323	39.96332	59.97815
27.62083	5.734711	0.00688693	86.8914	295.083	40.01444	59.98648
27.74583	5.734074	0.006956458	86.8818	296.3294	40.01064	59.99574
27.87083	5.733588	0.006818845	86.8744	297.5791	39.99526	60.04241
27.99583	5.732943	0.00680558	86.8646	298.8301	40.01311	60.01469
28.12083	5.73249	0.006736464	86.8578	300.0796	39.99066	59.99578
28.24583	5.731837	0.006710785	86.8479	301.3291	39.99441	59.97648
28.37083	5.731316	0.006628032	86.84	302.5782	40.00012	60.03357
28.49583	5.730752	0.00658634	86.8314	303.8273	40.02112	60.0086
28.62083	5.730301	0.006489922	86.8246	305.0794	40.00623	59.9973
28.74583	5.729816	0.006429206	86.8172	306.3272	40.01919	60.0278
28.87083	5.729218	0.00638347	86.8082	307.574	40.01616	59.97999
28.99583	5.728629	0.00639277	86.7993	308.8241	40.02353	59.96615
29.12083	5.728145	0.006436118	86.7919	310.0748	39.97861	59.978
29.24583	5.72764	0.006460774	86.7843	311.324	40.03045	60.00989
29.37083	5.727166	0.006351304	86.7771	312.5728	40.01758	59.99705
29.49583	5.72658	0.006344976	86.7682	313.8214	40.00435	60.00626
29.62083	5.725988	0.006202492	86.7592	315.0719	39.97053	60.00368
29.74583	5.725498	0.006139165	86.7518	316.3196	39.98988	59.98038
29.87083	5.72513	0.006055474	86.7462	317.5704	39.99444	60.02957
29.99583	5.724453	0.00601872	86.736	318.8189	40.0049	60.00744
30.12083	5.724136	0.006019493	86.7312	320.0675	40.01	60.00906
30.24583	5.723626	0.00603036	86.7234	321.3152	39.99086	60.0193
30.37083	5.723009	0.006058774	86.7141	322.5658	40.00691	60.00149
30.49583	5.722568	0.006062918	86.7074	323.8134	39.99967	60.0075
30.62083	5.722042	0.006052137	86.6994	325.0625	40.00242	59.98004
30.74583	5.72146	0.006130738	86.6906	326.3117	39.93345	59.95476
30.87083	5.721081	0.0061198	86.6849	327.5603	40.03562	60.0137
30.99583	5.72053	0.006203868	86.6765	328.812	40.01688	60.00254
31.12083	5.720093	0.006119085	86.6699	330.0578	39.98161	60.02659
31.24583	5.719425	0.0059549	86.6598	331.308	39.9832	60.05481
31.37083	5.718952	0.005895976	86.6526	332.5569	40.00903	59.98474
31.49583	5.718518	0.005702198	86.6461	333.8053	39.9581	59.98511
31.62083	5.718054	0.005544787	86.639	335.0535	40.00209	60.0124
31.74583	5.717584	0.005494654	86.6319	336.3038	39.99866	59.9999
31.87083	5.717226	0.00546388	86.6265	337.5512	39.99868	59.99696
31.99583	5.71676	0.005480088	86.6194	338.7987	40.01344	59.9808
32.12084	5.716247	0.005395395	86.6116	340.0471	39.98311	59.98618
32.24584	5.715889	0.005421762	86.6062	341.2964	40.00524	60.00418
32.37084	5.71541	0.00546804	86.599	342.5464	39.99584	60.01308
32.49584	5.714892	0.005435955	86.5911	343.7953	39.9833	59.99365
32.62084	5.71453	0.005381281	86.5856	345.0433	40.01682	59.99316
32.74584	5.714072	0.005501611	86.5787	346.2936	39.98598	60.00978
32.87084	5.71365	0.005533606	86.5723	347.542	39.98545	60.0019
32.99584	5.713095	0.005604084	86.5639	348.7916	40.02192	59.98774
33.12084	5.71284	0.005516534	86.56	350.042	40.01784	59.98402
33.24584	5.712127	0.00555765	86.5492	351.2884	39.99014	59.99938
33.37084	5.711724	0.00548681	86.5431	352.5375	39.99554	59.99421
33.49584	5.711193	0.005419209	86.5351	353.7861	40.00738	60.00145
33.62084	5.710875	0.00540066	86.5302	355.0356	39.99222	60.0373
33.74584	5.710515	0.005293728	86.5248	356.2822	40.0189	60.00039
33.87084	5.70996	0.005221348	86.5164	357.5326	39.99664	59.98541
33.99584	5.7095	0.005314912	86.5094	358.7819	39.99626	60.01885
34.12084	5.709126	0.005419249	86.5037	360.0311	39.99664	60.01753
34.24584	5.70872	0.005422532	86.4976	361.287	39.99066	60.01089
34.37084	5.708135	0.005302368	86.4887	362.54	39.98252	59.9582
34.49584	5.70772	0.00526236	86.4824	363.7913	40.01436	59.9965
34.62084	5.707288	0.005280328	86.4759	365.0439	40.01495	60.0119
34.74584	5.706889	0.0052679	86.4698	366.2963	40.00804	60.0083
34.87084	5.706536	0.005132011	86.4645	367.5493	39.98925	60.00495
34.99584	5.706109	0.005054936	86.458	368.7996	40.01284	59.97349
35.12084	5.705628	0.005150006	86.4507	370.0536	39.99837	59.99776
35.24584	5.705212	0.005139322	86.4444	371.306	39.993	60.00574
35.37084	5.70484	0.005074024	86.4388	372.5578	40.02838	59.95951
35.49584	5.704346	0.005002961	86.4313	373.8094	39.99867	60.03215
35.62084	5.703956	0.004968929	86.4254	375.059	39.99456	59.99242
35.74584	5.703562	0.005067	86.4194	376.3118	39.99888	60.00852
35.87084	5.70316	0.005134076	86.4133	377.5636	40.01645	60.03608
35.99584	5.702688	0.004997728	86.4062	378.8135	39.96985	59.98904
36.12084	5.702375	0.005021881	86.4015	380.0648	40.0354	59.98582
36.24584	5.701734	0.005012164	86.3917	381.3167	39.99624	60.00896
36.37084	5.701536	0.004996371	86.3887	382.5679	39.9892	59.97182
36.49584	5.701075	0.004883762	86.3818	383.8176	40.00244	59.99152
36.62084	5.700704	0.004826094	86.3761	385.0697	40.0123	60.0126
36.74584	5.70028	0.004830989	86.3697	386.32	40.00415	60.00474
36.87084	5.699866	0.00493677	86.3634	387.5708	40.02129	59.97657
36.99584	5.699468	0.00488784	86.3574	388.8218	39.95044	59.98637
37.12084	5.698969	0.004811802	86.3498	390.0719	40.01672	59.99629
37.24584	5.698624	0.004809732	86.3446	391.3235	39.9856	60.02747
37.37084	5.698262	0.004793172	86.3391	392.574	40.0209	60.00441
37.49584	5.697851	0.004733691	86.3329	393.8254	39.9901	60.00106
37.62084	5.697442	0.004633832	86.3267	395.0743	40.01252	59.97515
37.74584	5.697136	0.004589236	86.3221	396.3266	40.01398	59.98663
37.87084	5.696764	0.004632171	86.3164	397.5758	40.00383	60.00339
37.99584	5.696363	0.004659486	86.3104	398.8281	39.97781	59.98748
38.12084	5.69606	0.004575826	86.3058	400.0772	40.00576	59.94826
38.24584	5.695609	0.004487438	86.2989	401.3281	39.98907	59.98365
38.37084	5.695125	0.004530534	86.2916	402.5781	40.02158	60.02441
38.49584	5.694838	0.004598676	86.2873	403.8306	40.01477	59.98037
38.62084	5.694468	0.004618521	86.2816	405.0795	40.01672	59.99854
38.74584	5.694238	0.004611094	86.2782	406.3306	39.9819	60.04221
38.87084	5.693639	0.004681402	86.2691	407.582	39.99319	60.01565
38.99584	5.69335	0.004714104	86.2647	408.8306	39.99795	59.97761
39.12084	5.69297	0.004713668	86.259	410.0821	40.02828	59.96081
39.24584	5.692491	0.00465239	86.2517	411.3336	40.00435	59.93504
39.37084	5.692196	0.004660286	86.2472	412.5822	40.01174	59.98672
39.49584	5.691832	0.004679013	86.2417	413.832	40.02971	60.0083
39.62084	5.691343	0.0046938	86.2343	415.0836	39.96242	60.00372
39.74584	5.691026	0.004600948	86.2295	416.3351	39.98926	60.0143
39.87084	5.690598	0.004511176	86.223	417.5838	39.99031	60.0047
39.99584	5.690193	0.004416176	86.2169	418.836	39.9982	60.00548
40.12084	5.6899	0.004389532	86.2124	420.0874	40.0117	60.01507
40.24584	5.68957	0.00451001	86.2074	421.3354	39.97962	60.00383
40.37084	5.689268	0.004579194	86.2029	422.5874	40.007	59.97506
40.49584	5.68874	0.004720448	86.1949	423.8369	40.00794	60.02974
40.62084	5.688303	0.0047826	86.1882	425.0897	40.00586	59.97274
40.74584	5.688098	0.004758056	86.1851	426.3388	40.003	60.0157
40.87084	5.687456	0.004826961	86.1754	427.5873	40.02213	60.00224
40.99584	5.687184	0.004771534	86.1713	428.8382	39.98256	59.96148
41.12084	5.68685	0.004779796	86.1662	430.0898	39.99715	59.99617
41.24584	5.686441	0.004893972	86.16	431.3407	40.00409	59.96176
41.37084	5.685958	0.004782548	86.1527	432.5914	39.99238	59.98243
41.49584	5.685557	0.004795279	86.1466	433.8404	40.00017	59.97021
41.62084	5.685212	0.004695141	86.1414	435.0922	40.0149	59.9794
41.74584	5.684788	0.004510429	86.135	436.3446	40.03415	59.99434
41.87084	5.684524	0.004460734	86.131	437.5941	39.9975	60.0217
41.99584	5.684205	0.004397726	86.1261	438.8464	40.02803	59.9849
42.12084	5.683762	0.004499242	86.1194	440.0966	40.00605	59.9771
42.24584	5.683328	0.004799481	86.1129	441.3454	39.98431	59.99688
42.37084	5.68301	0.004851785	86.108	442.5964	39.99948	59.98709
42.49584	5.682629	0.004823322	86.1023	443.8464	40.01196	59.98712
42.62084	5.681988	0.004678407	86.0926	445.0972	40.00742	60.01528
42.74584	5.681562	0.004396678	86.0861	446.348	39.99068	59.98756
42.87084	5.68146	0.004117298	86.0846	447.598	40.02438	59.98842
42.99584	5.680991	0.003847195	86.0774	448.8502	39.97056	59.9937
43.12084	5.680838	0.003935303	86.0751	450.1021	40.0072	60.02926
43.24584	5.680555	0.004484912	86.0708	451.3494	40.01378	59.99728
43.37084	5.680195	0.004965258	86.0654	452.6026	39.98875	60.01644
43.49584	5.679718	0.005214224	86.0582	453.8532	40.01019	59.9969
43.62084	5.679165	0.005211196	86.0498	455.1044	39.99672	60.02947
43.74584	5.67859	0.005131264	86.0411	456.3532	40.00122	59.98852
43.87084	5.678234	0.004852526	86.0357	457.6044	39.98179	60.02312
43.99584	5.678012	0.004513978	86.0323	458.8547	40.00667	59.99928
44.12084	5.677676	0.00432459	86.0272	460.1055	39.99466	60.01075
44.24584	5.677347	0.004278942	86.0222	461.3556	39.99211	60.00068
44.37084	5.67681	0.004413914	86.0141	462.6071	40.01364	60.01384
44.49584	5.676489	0.004552524	86.0092	463.8597	40.01255	59.9975
44.62084	5.67616	0.00447548	86.0042	465.1094	40.0255	60.01974
44.74584	5.675834	0.004537789	85.9993	466.3614	39.98812	59.96797
44.87084	5.675318	0.004612984	85.9915	467.6113	40.01773	60.0075
44.99584	5.675037	0.004756539	85.9872	468.8637	40.02096	59.99922
45.12084	5.67469	0.004879362	85.982	470.1161	39.9679	59.96941
45.24584	5.674234	0.004928148	85.9751	471.3684	39.96775	60.0191
45.37084	5.673746	0.004931328	85.9677	472.6186	39.9997	59.98758
45.49584	5.673435	0.004787528	85.963	473.8692	40.0135	59.99294
45.62084	5.672974	0.00466478	85.956	475.1216	39.99822	59.98184
45.74584	5.67245	0.004462286	85.948	476.3726	39.99561	60.01814
45.87084	5.672268	0.004388156	85.9453	477.6243	40.01295	60.0124
45.99584	5.671961	0.004347954	85.9406	478.8738	40.01856	59.99486
46.12084	5.671574	0.004287634	85.9348	480.1252	40.01098	59.9893
46.24584	5.671195	0.004352354	85.929	481.3762	39.97967	59.9784
46.37084	5.670826	0.004488232	85.9234	482.6269	39.98437	60.01814
46.49584	5.670472	0.004461109	85.9181	483.8785	40.00615	60.0094
46.62084	5.670027	0.004352275	85.9113	485.1276	40.00906	59.98478
46.74584	5.669735	0.004188488	85.9069	486.3784	39.98174	60.0111
46.87084	5.669314	0.004037908	85.9005	487.6297	39.98518	60.01138
46.99584	5.669034	0.00404624	85.8963	488.881	40.0274	59.96378
47.12084	5.668809	0.003953591	85.8929	490.131	39.98628	60.0019
47.24584	5.668582	0.004052356	85.8894	491.3804	39.98793	59.99914
47.37084	5.668019	0.004235078	85.8809	492.6315	40.0138	59.99691
47.49584	5.667795	0.004547202	85.8775	493.8834	39.98422	60.00574
47.62084	5.667302	0.004685498	85.87	495.1342	40.00019	59.9947
47.74584	5.666969	0.004774238	85.865	496.3861	40.00345	60.0185
47.87084	5.666526	0.004704965	85.8583	497.6355	39.985	59.9979
47.99584	5.666236	0.004851928	85.8539	498.8864	40.01375	60.07174
48.12084	5.665691	0.004795538	85.8456	500.1371	39.999	60.00496
48.24584	5.665376	0.00466864	85.8409	501.3882	40.0047	59.97906
48.37084	5.66498	0.004595184	85.8349	502.6404	39.98918	60.02778
48.49584	5.664448	0.004648659	85.8268	503.8907	39.99683	60.00045
48.62084	5.664176	0.004689578	85.8227	505.142	39.98805	60.00818
48.74584	5.663874	0.00465203	85.8181	506.3932	40.00856	60.0125
48.87084	5.663457	0.004655075	85.8118	507.6428	39.99576	59.99144
48.99584	5.662938	0.004788359	85.8039	508.8956	39.98921	59.98828
49.12084	5.662714	0.00487125	85.8005	510.1447	40.01153	60.01142
49.24584	5.662289	0.004808052	85.7941	511.3961	39.9871	59.99682
49.37084	5.661824	0.00473148	85.787	512.6465	40.01192	59.98457
49.49584	5.661387	0.004714579	85.7804	513.897	39.98432	60.01174
49.62084	5.660984	0.004731206	85.7743	515.1476	39.99394	60.01075
49.74584	5.66075	0.004678486	85.7708	516.4008	39.99733	59.99528
49.87084	5.660332	0.004727964	85.7644	517.651	39.99513	59.98669
49.99584	5.65985	0.004974526	85.7571	518.9012	40.00342	60.0125
50.12084	5.659622	0.005034297	85.7537	520.1539	40.0067	59.99392
50.24584	5.659062	0.005090961	85.7452	521.4043	39.9747	59.98244
50.37084	5.65863	0.005067696	85.7386	522.6534	40.02306	60.0271
50.49584	5.658137	0.005030281	85.7312	523.904	40.00107	60.00512
50.62084	5.657851	0.005052334	85.7268	525.155	39.97938	60.02986
50.74584	5.657414	0.005004298	85.7202	526.4068	40.01569	59.99487
50.87084	5.657012	0.004986672	85.7141	527.657	39.97223	60.0081
50.99584	5.656624	0.005099602	85.7082	528.9078	40.01037	59.9781
51.12084	5.656049	0.005180569	85.6995	530.159	40.03989	60.00884
51.24584	5.65572	0.005232514	85.6945	531.4116	39.98942	59.98636
51.37084	5.655332	0.005253748	85.6887	532.6601	40.01743	60.00686
51.49584	5.654864	0.00524402	85.6816	533.913	39.99114	60.00305
51.62084	5.65438	0.005309734	85.6742	535.1612	39.9993	59.96294
51.74584	5.65392	0.00532481	85.6673	536.413	39.99463	59.97711
51.87084	5.653635	0.005485992	85.663	537.6645	39.96918	60.01299
51.99584	5.653055	0.005586426	85.6542	538.9156	40.00184	59.9981
52.12084	5.65271	0.005772781	85.6489	540.1652	40.00534	60.01965
52.24584	5.652094	0.005805512	85.6396	541.4154	39.98786	60.00532
52.37084	5.651665	0.006035442	85.6331	542.6674	39.9908	59.99685
52.49584	5.651114	0.006320762	85.6248	543.9174	40.04084	60.02229
52.62084	5.65066	0.006645011	85.6179	545.1682	40.01956	59.99765
52.74584	5.650308	0.006821736	85.6125	546.4176	40.02294	60.00828
52.87084	5.649484	0.007121849	85.6001	547.6706	39.98402	59.97324
52.99584	5.648789	0.007394924	85.5895	548.9222	40.00363	60.01388
53.12084	5.648188	0.007785462	85.5804	550.1724	40.00748	59.97461
53.24584	5.64769	0.007954731	85.5729	551.4232	39.99217	60.0165
53.37084	5.647058	0.008035682	85.5633	552.6766	39.991	60.00546
53.49584	5.646246	0.008232032	85.551	553.9263	39.99774	60.00512
53.62084	5.6455	0.008466705	85.5397	555.1757	39.9741	60.00791
53.74584	5.644829	0.008606235	85.5295	556.4276	39.99126	60.00929
53.87084	5.64416	0.008661756	85.5194	557.678	39.9859	59.98891
53.99584	5.643426	0.008680225	85.5083	558.9271	39.99536	60.00424
54.12084	5.642682	0.008906246	85.497	560.177	40.00635	59.9887
54.24584	5.641985	0.009071262	85.4864	561.4296	40.0011	60.04351
54.37084	5.64125	0.008947944	85.4753	562.6778	40.02533	59.99876
54.49584	5.640514	0.008984622	85.4641	563.9296	40.02061	59.98774
54.62084	5.639627	0.008889062	85.4507	565.1812	40.01418	60.01692
54.74584	5.63907	0.008753412	85.4423	566.4328	40.00295	59.95908
54.87084	5.638276	0.0084446	85.4302	567.685	39.99284	59.9996
54.99584	5.637512	0.008127698	85.4187	568.936	39.99765	59.98276
55.12084	5.636903	0.007943784	85.4094	570.1866	39.98196	59.98338
55.24584	5.636314	0.007784326	85.4005	571.4368	40.01972	60.01568
55.37084	5.635679	0.007408369	85.3909	572.6882	39.9818	60.00691
55.49584	5.63501	0.007130766	85.3808	573.9402	39.98508	60.01078
55.62084	5.634514	0.006788042	85.3732	575.1914	40.02512	60.00884
55.74584	5.633796	0.006631312	85.3624	576.4418	39.97276	59.9992
55.87084	5.633368	0.006272242	85.3559	577.6955	39.97352	59.9843
55.99584	5.632954	0.005768209	85.3496	578.9462	40.00788	59.99241
56.12084	5.632387	0.00536319	85.341	580.1974	40.00369	59.9956
56.24584	5.631851	0.004927329	85.3329	581.4474	40.013	60.00981
56.37084	5.631646	0.004605439	85.3298	582.6976	39.99971	59.99708
56.49584	5.631312	0.004228443	85.3247	583.9508	40.00316	59.96676
56.62084	5.630881	0.003820145	85.3182	585.202	40.0161	59.99161
56.74584	5.630634	0.00369544	85.3144	586.4521	39.99535	60.03026
56.87084	5.630276	0.003674924	85.309	587.701	39.98906	60.0102
56.99584	5.629997	0.003570738	85.3048	588.9518	40.02924	60.0007
57.12084	5.629744	0.003481832	85.301	590.2043	40.00154	59.98611
57.24584	5.629484	0.003422034	85.297	591.4537	39.99559	60.00799
57.37084	5.629085	0.003356856	85.291	592.7054	39.9868	59.9737
57.49584	5.628881	0.003197624	85.2879	593.9576	40.01213	59.9775
57.62084	5.628543	0.002979335	85.2828	595.2088	40.0206	60.04384
57.74584	5.628412	0.00283242	85.2808	596.46	39.99285	60.0075
57.87084	5.62815	0.002753382	85.2768	597.7116	39.9917	59.97834
57.99584	5.627961	0.002691124	85.2739	598.9629	39.99644	60.00084
58.12084	5.627761	0.002692162	85.2709	600.2144	39.9746	60.01301
58.24584	5.627478	0.002718484	85.2666	601.4639	39.99586	60.02735
58.37084	5.627278	0.002770225	85.2636	602.717	40.01817	60.01614
58.49584	5.627039	0.002664226	85.26	603.9659	40.01328	59.98881
58.62084	5.626838	0.002546847	85.2569	605.216	39.99545	59.98012
58.74584	5.626606	0.00238428	85.2534	606.466	40.00657	60.017
58.87084	5.626406	0.002227964	85.2504	607.716	40.0051	60.00195
58.99584	5.62623	0.001989914	85.2477	608.9671	39.98398	60.0103
59.12084	5.62613	0.001795293	85.2462	610.218	40.00061	60.01242
59.24584	5.625906	0.001453913	85.2428	611.4714	39.97683	59.99738
59.37084	5.62583	0.001284134	85.2417	612.7216	39.96916	60.00422
59.49584	5.625746	0.001167437	85.2404	613.9718	40.01727	59.99368
59.62084	5.625679	0.001027544	85.2394	615.2224	40.0195	59.97998
59.74584	5.625722	0.000910841	85.24	616.473	40.01105	59.98542
59.87084	5.625506	0.000792584	85.2367	617.722	39.9972	59.96816
59.99584	5.625391	0.000747043	85.235	618.9746	40.03272	60.00674
60.12084	5.6254	0.00084815	85.2351	620.2263	39.99152	60.01395
60.24584	5.625302	0.000826559	85.2337	621.477	39.99065	59.9837
60.37084	5.625322	0.000658942	85.234	622.7274	39.98466	60.02526
60.49584	5.6253	0.000531545	85.2336	623.9804	40.0079	60.02898
60.62084	5.625041	0.000490299	85.2297	625.23	39.9842	60.0079
60.74584	5.625168	0.000512056	85.2316	626.4813	39.99915	59.99234
60.87084	5.625099	0.000374799	85.2306	627.7294	40.00176	60.02955
60.99584	5.625229	0.000184036	85.2326	628.9805	40.03747	60.02932
61.12084	5.62502	0.000248433	85.2294	630.2324	39.98346	59.99724
61.24584	5.625	0.00038739	85.2291	631.4847	40.0181	59.99891
61.37084	5.625024	0.000490972	85.2294	632.7324	40.02172	59.996
61.49584	5.625142	0.000305435	85.2312	633.9855	39.97146	60.03539
61.62084	5.624924	0.000320188	85.2279	635.2364	40.00729	59.96855
61.74584	5.624814	0.000509139	85.2263	636.4878	40.02843	59.98442
61.87084	5.624856	0.000454794	85.2269	637.738	39.97878	59.98697
61.99584	5.624922	0.000279022	85.2279	638.9882	40.02376	59.98706
62.12084	5.624838	0.000343527	85.2266	640.2387	39.98137	60.00285
62.24584	5.624787	0.000405593	85.2259	641.4926	40.00969	60.02991
62.37084	5.624879	0.000512615	85.2272	642.7437	39.9982	60.01778
62.49584	5.624778	0.000536508	85.2257	643.9932	39.98328	60.03687
62.62084	5.624581	0.000524	85.2227	645.2432	40.0128	59.97598
62.74584	5.624638	0.000532227	85.2236	646.4937	40.00874	59.99328
62.87084	5.624539	0.000405074	85.2221	647.7449	39.97125	59.98524
62.99584	5.624454	0.000413828	85.2208	648.9975	39.99639	59.98441
63.12084	5.624504	0.000774279	85.2216	650.2465	39.9957	59.99139
63.24584	5.624547	0.00098093	85.2222	651.5	40.02022	60.03484
63.37084	5.624446	0.0009057	85.2207	652.7478	40.01872	60.0153
63.49584	5.624179	0.000870537	85.2166	654.0	39.99469	60.00862
63.62084	5.623992	0.000893467	85.2138	655.2495	40.00906	59.99842
63.74584	5.624164	0.000729745	85.2164	656.4994	40.01627	59.96793
63.87084	5.624156	0.000452818	85.2163	657.7504	40.01344	60.00613
63.99584	5.624072	0.000607364	85.215	659.0026	39.99212	60.02473
64.12084	5.623952	0.000947479	85.2132	660.2541	40.02644	59.99702
64.24584	5.623968	0.00104476	85.2134	661.5044	40.01232	60.02887
64.37084	5.623844	0.001115431	85.2116	662.7553	40.00778	60.01408
64.49584	5.623584	0.001134682	85.2076	664.0074	39.982	59.99297
64.62084	5.623672	0.001214407	85.209	665.2576	40.01483	59.99011
64.74584	5.623547	0.001165337	85.2071	666.5086	39.99724	59.98557
64.87084	5.623357	0.001172622	85.2042	667.7593	40.0512	59.99091
64.99584	5.623325	0.001400859	85.2037	669.0105	40.01556	60.00579
65.12084	5.623232	0.001605078	85.2023	670.2618	40.00266	60.00188
65.24584	5.623075	0.00173381	85.1999	671.5132	39.98587	59.97722
65.37084	5.622844	0.002018214	85.1964	672.7626	39.98721	60.00146
65.49584	5.622798	0.002214608	85.1957	674.0154	40.0213	60.01376
65.62084	5.622506	0.002385333	85.1913	675.2659	39.99681	59.99256
65.74584	5.622265	0.002329844	85.1876	676.5157	40.00333	59.99247
65.87084	5.621998	0.002248715	85.1836	677.7669	39.99244	60.02379
65.99584	5.621963	0.002031069	85.1831	679.0194	39.99477	60.01571
66.12084	5.621723	0.001737543	85.1794	680.2706	39.99605	60.02965
66.24584	5.621637	0.001831824	85.1781	681.5218	39.98664	60.0123
66.37084	5.621587	0.00207002	85.1774	682.7718	40.00568	60.00576
66.49584	5.621503	0.002204346	85.1761	684.0225	39.99987	59.99975
66.62084	5.621234	0.002618567	85.172	685.2755	40.00852	59.9923
66.74584	5.620824	0.003003885	85.1658	686.5232	39.98359	60.03387
66.87084	5.620768	0.003400564	85.165	687.7739	40.01722	60.00713
66.99584	5.62043	0.00355277	85.1598	689.0259	40.01706	60.00702
67.12084	5.619976	0.003572625	85.153	690.2776	39.995	59.9988
67.24584	5.619799	0.003836765	85.1503	691.5297	39.96735	59.99794
67.37084	5.619353	0.003980367	85.1435	692.782	40.02036	59.99236
67.49584	5.619133	0.004032424	85.1402	694.0292	40.00406	60.02385
67.62084	5.618742	0.004216884	85.1343	695.2788	39.9755	60.012
67.74584	5.618359	0.004358887	85.1285	696.5313	40.0041	59.97469
67.87084	5.618137	0.004566222	85.1251	697.7814	39.98063	59.983
67.99584	5.617679	0.004855362	85.1182	699.0311	39.9827	59.99121
68.12084	5.61727	0.005056609	85.112	700.2822	39.98475	60.00266
68.24584	5.616866	0.00527565	85.1058	701.5342	40.00365	60.01285
68.37084	5.616312	0.005341556	85.0974	702.7849	40.0082	60.0085
68.49584	5.615899	0.005465048	85.0912	704.0374	39.98708	60.01687
68.62084	5.615463	0.0056124	85.0846	705.285	39.94656	59.99814
68.74584	5.615035	0.005477662	85.0781	706.5382	40.01236	59.98938
68.87084	5.614617	0.005245224	85.0718	707.79	39.97943	60.03829
68.99584	5.614014	0.005189752	85.0626	709.0416	39.98685	59.99716
69.12084	5.613521	0.005184392	85.0552	710.2918	39.99446	59.9876
69.24584	5.61331	0.005115582	85.052	711.5422	40.00166	59.99594
69.37084	5.612884	0.004861182	85.0455	712.7934	40.01542	59.99235
69.49584	5.612377	0.004741928	85.0378	714.0452	40.00706	60.00904
69.62084	5.611988	0.004929848	85.0319	715.2978	40.034	59.97546
69.74584	5.611612	0.00519207	85.0262	716.5478	40.01584	60.02963
69.87084	5.611374	0.005310597	85.0226	717.799	39.98982	60.04404
69.99584	5.610898	0.005381374	85.0154	719.0465	39.98875	59.99663
70.12084	5.610212	0.005335375	85.005	720.2982	40.02208	59.99445
70.24584	5.609762	0.005316162	84.9982	721.5497	39.9794	60.01406
70.37084	5.609396	0.005154074	84.9927	722.801	40.0015	60.00834
70.49584	5.609058	0.00476869	84.9875	724.049	39.98989	60.02246
70.62084	5.608728	0.004345566	84.9825	725.2994	40.01006	60.00272
70.74584	5.608202	0.004106419	84.9746	726.5503	40.00183	60.01818
70.87084	5.607852	0.004063003	84.9693	727.7995	39.99117	59.987
70.99584	5.607654	0.004101421	84.9663	729.051	40.00376	59.97512
71.12084	5.60751	0.004026069	84.9641	730.3026	40.00544	59.99187
71.24584	5.607024	0.004095203	84.9567	731.5552	40.00816	59.979
71.37084	5.606592	0.004470864	84.9502	732.8043	39.99507	59.97812
71.49584	5.606283	0.00484598	84.9455	734.0549	39.97994	60.03316
71.62084	5.605895	0.004920956	84.9396	735.3072	40.00932	59.9764
71.74584	5.605571	0.004590282	84.9347	736.56	40.01896	59.99396
71.87084	5.604736	0.004164	84.922	737.8081	40.0201	59.9909
71.99584	5.604581	0.003658266	84.9197	739.0595	40.03084	60.01752
72.12084	5.604441	0.00309252	84.9176	740.3126	40.02044	60.01777
72.24584	5.604242	0.002611963	84.9146	741.5608	40.00601	60.00112
72.37084	5.60403	0.002423847	84.9113	742.813	40.00356	59.99724
72.49584	5.603824	0.002570859	84.9082	744.0653	40.01798	59.99028
72.62084	5.603609	0.002645113	84.905	745.3153	39.99604	60.01548
72.74584	5.603476	0.002760008	84.903	746.5638	39.97442	59.9887
72.87084	5.602998	0.003080974	84.8957	747.8148	40.0277	60.00694
72.99584	5.602974	0.003203392	84.8953	749.0671	39.977	59.9937
73.12084	5.602856	0.003104348	84.8936	750.3157	40.00163	59.99532
73.24584	5.602316	0.002874185	84.8854	751.5665	39.98838	59.9727
73.37084	5.601851	0.002588668	84.8783	752.8163	40.00958	60.00601
73.49584	5.601802	0.002355056	84.8776	754.0666	40.00875	60.01582
73.62084	5.601814	0.001872742	84.8778	755.3171	40.0293	59.99372
73.74584	5.60163	0.001789374	84.875	756.5671	39.97472	60.00298
73.87084	5.601506	0.002169232	84.8731	757.8181	40.01294	60.01514
73.99584	5.601538	0.002561735	84.8736	759.0698	40.02117	59.97212
74.12084	5.601142	0.00270411	84.8676	760.3205	39.97454	60.00314
74.24584	5.600718	0.00266878	84.8612	761.5716	40.01058	60.00933
74.37084	5.600494	0.002431009	84.8578	762.8201	40.00144	59.98451
74.49584	5.600332	0.002161216	84.8553	764.0724	39.99567	59.98478
74.62084	5.60034	0.001622149	84.8554	765.3247	39.9803	59.98828
74.74584	5.600175	0.001379106	84.8529	766.5757	40.01488	59.99238
74.87084	5.600052	0.001648932	84.8511	767.8276	39.97406	60.01226
74.99584	5.59995	0.001853198	84.8495	769.0782	39.97977	59.99492
75.12084	5.599868	0.001921966	84.8483	770.328	39.99734	59.9897
75.24584	5.599613	0.001890372	84.8444	771.5797	39.99336	60.0075
75.37084	5.599262	0.001806812	84.8391	772.8296	40.00302	59.9766
75.49584	5.599219	0.001669727	84.8385	774.0816	40.03574	59.9784
75.62084	5.599175	0.001408804	84.8378	775.334	40.01675	60.00062
75.74584	5.599029	0.00119827	84.8356	776.5826	39.99476	59.99468
75.87084	5.598862	0.001477346	84.833	777.8338	39.99764	60.01244
75.99584	5.598854	0.001665178	84.8329	779.084	39.98049	60.00006
76.12084	5.598816	0.001743578	84.8323	780.3369	39.97719	60.00405
76.24584	5.598545	0.001886276	84.8282	781.586	39.97332	60.0072
76.37084	5.598332	0.002094849	84.825	782.8355	40.01312	59.95974
76.49584	5.598205	0.00209688	84.8231	784.0862	39.99582	59.98476
76.62084	5.59811	0.001759302	84.8216	785.3375	39.97812	60.00432
76.74584	5.59782	0.001554657	84.8173	786.5871	40.00214	60.01624
76.87084	5.597552	0.00177958	84.8132	787.8386	40.00843	59.9662
76.99584	5.597771	0.00189553	84.8165	789.0897	40.01819	59.99709
77.12084	5.597626	0.001949752	84.8143	790.34	40.02906	60.01693
77.24584	5.597305	0.002153592	84.8095	791.5891	40.00845	60.00212
77.37084	5.596984	0.0023352	84.8046	792.8391	39.99575	59.9914
77.49584	5.596912	0.002527783	84.8035	794.0908	40.02536	59.99834
77.62084	5.596693	0.002215902	84.8002	795.3424	39.98922	60.00686
77.74584	5.59655	0.001935301	84.798	796.5922	39.93172	59.99011
77.87084	5.59627	0.001859772	84.7938	797.8446	39.99706	60.02628
77.99584	5.59621	0.002112947	84.7929	799.0935	39.99283	60.0066
78.12084	5.596134	0.002418296	84.7917	800.344	39.98767	60.00557
78.24584	5.595874	0.002891406	84.7878	801.5943	40.02434	60.00443
78.37084	5.595688	0.003234596	84.7849	802.8453	40.01805	59.96553
78.49584	5.595252	0.00337204	84.7783	804.0961	39.9569	60.02264
78.62084	5.594829	0.002966758	84.7719	805.3479	40.00945	60.01094
78.74584	5.594715	0.002441032	84.7702	806.5969	39.99861	59.99747
78.87084	5.594262	0.001998148	84.7633	807.8487	40.00693	60.00637
78.99584	5.5946	0.001816351	84.7685	809.0979	39.99746	60.00439
79.12084	5.594394	0.001837243	84.7653	810.3484	40.02247	59.96274
79.24584	5.594216	0.002349441	84.7626	811.6005	39.99405	59.97699
79.37084	5.59393	0.003089246	84.7583	812.8511	39.97086	59.98928
79.49584	5.59371	0.003920342	84.755	814.103	39.98076	60.00121
79.62084	5.593359	0.004132424	84.7497	815.3535	40.01587	59.98335
79.74584	5.592979	0.00419318	84.7439	816.6051	39.9946	60.0133
79.87084	5.592493	0.004336469	84.7365	817.8538	40.03051	59.98241
79.99584	5.592156	0.004392262	84.7314	819.107	40.00284	60.00062
80.12084	5.591954	0.00426517	84.7284	820.3572	39.98531	59.97754
80.24584	5.591594	0.004288791	84.7229	821.6072	40.0156	60.01913
80.37084	5.591124	0.00443517	84.7158	822.8574	39.98296	59.99916
80.49584	5.590761	0.004680097	84.7103	824.1099	40.02663	60.00072
80.62084	5.59042	0.004736196	84.7051	825.3613	40.02291	60.00745
80.74584	5.590053	0.00487624	84.6996	826.6112	40.0152	60.0074
80.87084	5.589529	0.005063748	84.6916	827.8595	39.98688	59.99997
80.99584	5.589176	0.005321479	84.6863	829.111	39.98664	59.9982
81.12084	5.588803	0.005541444	84.6806	830.361	39.99792	60.00398
81.24584	5.588265	0.005820375	84.6725	831.6116	39.97995	59.97637
81.37084	5.587817	0.006443496	84.6657	832.8634	40.00578	59.99135
81.49584	5.58727	0.006988762	84.6574	834.1119	39.99759	59.9868
81.62084	5.586716	0.007375006	84.649	835.3616	40.01743	60.01709
81.74584	5.586152	0.007705554	84.6405	836.6111	40.00444	60.0018
81.87084	5.584992	0.007735952	84.6229	837.86	40.0157	60.00854
81.99584	5.584765	0.007475554	84.6194	839.1118	39.98779	59.98582
82.12084	5.583968	0.007255197	84.6074	840.3637	39.99816	60.00045
82.24584	5.583357	0.007259001	84.5981	841.6168	40.01645	59.9864
82.37084	5.583099	0.007405431	84.5942	842.8694	39.9869	60.01363
82.49584	5.582506	0.007940705	84.5852	844.1214	39.9964	60.00439
82.62084	5.581552	0.008754586	84.5708	845.3709	39.9922	60.00005
82.74584	5.580911	0.009552258	84.5611	846.6219	40.00608	59.98213
82.87084	5.580142	0.0101225	84.5494	847.8726	39.98046	60.0137
82.99584	5.57923	0.0105077	84.5356	849.1231	40.00298	59.99613
83.12084	5.578222	0.01090349	84.5203	850.3694	40.02328	59.99572
83.24584	5.577437	0.01160882	84.5084	851.6207	40.00795	60.01106
83.37084	5.576596	0.01227772	84.4957	852.8716	39.97518	60.0055
83.49584	5.575402	0.01288895	84.4776	854.1225	40.01181	60.00735
83.62084	5.574442	0.01347013	84.463	855.3735	40.02381	59.9951
83.74584	5.573056	0.01408279	84.442	856.6228	39.99297	60.02464
83.87084	5.571848	0.01455203	84.4237	857.8736	40.00855	59.99066
83.99584	5.570726	0.01512422	84.4067	859.1239	39.9975	60.00874
84.12084	5.569593	0.01552881	84.3896	860.3751	39.99846	59.98261
84.24584	5.568281	0.01577561	84.3697	861.6272	40.00443	59.95996
84.37084	5.56668	0.0165193	84.3454	862.8793	39.98857	59.98759
84.49584	5.565324	0.01742261	84.3249	864.1339	40.00485	60.03524
84.62084	5.564163	0.01786576	84.3073	865.389	40.03381	60.02174
84.74584	5.562678	0.01823388	84.2848	866.6421	40.00249	60.02635
84.87084	5.560772	0.0189371	84.2559	867.8924	39.99617	60.00172
84.99584	5.559275	0.01972266	84.2332	869.1418	39.99114	60.01586
85.12084	5.557865	0.02020588	84.2119	870.3912	40.01898	60.00116
85.24584	5.556153	0.02036824	84.1859	871.6394	39.98794	59.99282
85.37084	5.554156	0.02078798	84.1557	872.8891	39.99378	59.99468
85.49584	5.552637	0.02117262	84.1326	874.1403	39.99856	59.97466
85.62084	5.550896	0.02136926	84.1063	875.3881	40.0052	59.9936
85.74584	5.549074	0.02135889	84.0787	876.636	39.99392	59.97534
85.87084	5.547278	0.02148715	84.0514	877.8898	40.00506	59.97292
85.99584	5.545563	0.02142999	84.0255	879.1462	39.99945	59.98344
86.12084	5.543564	0.02116225	83.9952	880.4059	40.00344	59.99139
86.24584	5.541892	0.02067104	83.9698	881.6431	39.98834	60.01334
86.37084	5.5403	0.02029382	83.9457	882.8845	39.97968	59.99968
86.49584	5.53865	0.01935753	83.9207	884.1339	39.99024	60.01572
86.62084	5.536872	0.01831835	83.8938	885.3847	40.02327	60.016
86.74584	5.535522	0.01751932	83.8733	886.6355	39.99551	60.03402
86.87084	5.534002	0.01679766	83.8503	887.8874	39.99006	60.00494
86.99584	5.532946	0.01590584	83.8343	889.1359	39.99738	60.00106
87.12084	5.531617	0.0150061	83.8142	890.3866	40.01333	60.00918
87.24584	5.53027	0.01416503	83.7937	891.6406	40.02187	59.99106
87.37084	5.529063	0.01311429	83.7755	892.8934	40.00685	60.02211
87.49584	5.528088	0.01194021	83.7607	894.1425	39.99445	60.01512
87.62084	5.527106	0.0107209	83.7458	895.3928	39.99605	59.98747
87.74584	5.526362	0.009627485	83.7345	896.6418	40.0104	59.95806
87.87084	5.525675	0.008752472	83.7241	897.8941	39.99742	60.00448
87.99584	5.52492	0.007803238	83.7127	899.147	40.01541	59.97566
88.12084	5.524366	0.006868686	83.7043	900.3991	39.99744	60.03618
88.24584	5.523734	0.006098007	83.6947	901.6495	39.98641	60.0293
88.37084	5.523246	0.005350244	83.6873	902.8956	40.00896	60.02982
88.49584	5.522947	0.004773739	83.6828	904.1402	40.00286	60.03038
88.62084	5.522719	0.004280166	83.6793	905.3891	39.99231	60.04951
88.74584	5.522304	0.003683366	83.673	906.6369	40.0148	59.97411
88.87084	5.52189	0.003025567	83.6668	907.8905	39.9986	59.98574
88.99584	5.521669	0.002429866	83.6634	909.1444	39.98291	59.98828
89.12084	5.521456	0.001889164	83.6602	910.3961	40.00686	59.99074
89.24584	5.521534	0.001272883	83.6614	911.6461	39.98403	60.01448
89.37084	5.521424	0.000885947	83.6597	912.8988	39.99926	60.01757
89.49584	5.521426	0.00097924	83.6597	914.1434	40.01704	60.0023
89.62084	5.521236	0.001343955	83.6569	915.3999	40.00672	60.01475
89.74584	5.521231	0.001923548	83.6568	916.6549	40.0094	59.97649
89.87084	5.52098	0.002296444	83.653	917.9062	39.99172	60.00347
89.99584	5.52081	0.002303344	83.6504	919.1578	39.9706	60.00547
90.12084	5.520503	0.001683125	83.6458	920.4071	40.01288	59.99876
90.24584	5.520284	0.000879595	83.6424	921.6597	39.97974	59.94978
90.37084	5.519945	9.06367e-05	83.6373	922.9079	39.98587	59.99766
90.49584	5.520444	-0.00071261	83.6449	924.1609	40.01084	60.00561
90.62084	5.520756	-0.0013176	83.6496	925.4122	39.97153	59.97396
90.74584	5.52052	-0.0013197	83.646	926.6603	40.00386	59.99434
90.87084	5.520801	-0.00090319	83.6503	927.9124	39.97614	60.05324
90.99584	5.520898	-0.00031728	83.6517	929.1651	39.98912	60.00168
91.12084	5.520878	-0.00024978	83.6514	930.4152	40.00906	60.01699
91.24584	5.52087	-0.00027553	83.6513	931.6688	40.00658	59.98944
91.37084	5.520741	3.70729e-05	83.6494	932.9176	39.98671	60.01695
91.49584	5.520911	3.82198e-05	83.6519	934.1681	39.97582	59.99144
91.62084	5.52086	-0.00011815	83.6512	935.4168	40.00538	60.02332
91.74584	5.520718	-0.00028721	83.649	936.668	39.97822	60.00489
91.87084	5.520906	-0.00036879	83.6519	937.9208	40.01333	59.99359
91.99584	5.520934	-0.00034288	83.6523	939.171	39.97752	60.00224
92.12084	5.521016	-0.0002456	83.6535	940.4201	40.00844	59.98534
92.24584	5.521058	-0.00020835	83.6542	941.6688	39.99664	59.99105
92.37084	5.520935	-3.7259e-05	83.6523	942.9166	39.97656	59.98259
92.49584	5.521119	0.000231508	83.6551	944.1659	39.99034	60.00121
92.62084	5.520811	0.000579837	83.6504	945.4168	39.99056	59.99532
92.6875	5.520899	0.000709186	83.6518	946.0816	40.00132	60.00451