File: charts/20230801/TGA/INSATURADAS/ZSCBA.txt
08/02/2023 12:57:15
User name: Mateus
Comments:
Number	time(s)	mass(g)	Relative_mass(%)	Sample_T(C)	PV(C)	SV(C)
1.0	0.0	0.2412	100.0	27.75	66.0	66.0
4.0	4.0	0.2409	99.87562	28.75	68.0	66.0
7.0	10.0	0.2404	99.66833	31.0	74.0	67.0
10.0	16.0	0.2402	99.58541	34.75	85.0	67.0
13.0	22.0	0.2401	99.54395	38.5	96.0	68.0
16.0	28.0	0.2401	99.54395	42.25	104.0	68.0
19.0	34.0	0.2401	99.54395	45.25	111.0	68.0
22.0	40.0	0.2401	99.54395	48.25	118.0	68.0
25.0	46.0	0.24	99.50249	50.75	122.0	68.0
28.0	52.0	0.2401	99.54395	53.0	125.0	68.0
31.0	58.0	0.2401	99.54395	55.25	128.0	68.0
34.0	64.0	0.2401	99.54395	57.0	129.0	68.0
37.0	70.0	0.24	99.50249	59.0	131.0	68.0
40.0	76.0	0.2399	99.46103	60.5	132.0	68.0
43.0	82.0	0.2398	99.41957	62.0	133.0	68.0
46.0	88.0	0.2397	99.37811	63.5	134.0	68.0
49.0	94.0	0.2397	99.37811	64.75	134.0	68.0
52.0	100.0	0.2398	99.41957	66.0	136.0	68.0
55.0	106.001	0.2397	99.37811	67.0	136.0	68.0
58.0	112.001	0.2396	99.33665	68.25	136.0	68.0
61.0	118.001	0.2395	99.29519	69.25	136.0	68.0
64.0	124.001	0.2394	99.25373	70.0	136.0	68.0
67.0	130.001	0.2393	99.21227	71.0	136.0	68.0
70.0	136.001	0.2393	99.21227	71.75	136.0	68.0
74.0	144.001	0.2393	99.21227	72.5	136.0	68.0
77.0	150.001	0.2392	99.17081	73.25	136.0	68.0
82.0	160.001	0.2391	99.12935	74.25	134.0	68.0
87.0	170.001	0.239	99.08789	75.0	134.0	68.0
92.0	180.001	0.239	99.08789	75.75	134.0	68.0
98.0	192.001	0.2388	99.00498	76.5	133.0	68.0
106.0	208.008	0.2387	98.96352	77.25	132.0	68.0
118.0	232.009	0.2385	98.8806	78.0	131.0	68.0
129.0	254.009	0.2382	98.75622	78.75	129.0	68.0
333.0	662.009	0.236	97.84411	70.75	108.0	68.0
404.0	804.009	0.2359	97.80265	67.25	104.0	68.0
451.0	898.009	0.2359	97.80265	65.0	102.0	68.0
495.0	986.009	0.2359	97.80265	63.25	99.0	68.0
527.0	1050.009	0.2359	97.80265	61.75	99.0	68.0
568.0	1132.009	0.2359	97.80265	60.25	96.0	75.0
607.0	1210.009	0.236	97.84411	58.75	95.0	81.0
649.0	1294.009	0.236	97.84411	57.5	95.0	88.0
874.0	1746.147	0.2356	97.67828	79.75	128.0	126.0
880.0	1758.147	0.2354	97.59536	80.5	129.0	127.0
887.0	1772.15	0.2354	97.59536	81.25	129.0	128.0
891.0	1780.15	0.2352	97.51244	82.0	131.0	129.0
895.0	1788.15	0.2354	97.59536	82.75	132.0	130.0
899.0	1796.15	0.2353	97.5539	83.5	133.0	130.0
903.0	1804.15	0.2354	97.59536	84.25	134.0	131.0
909.0	1816.15	0.2353	97.5539	85.0	134.0	132.0
917.0	1832.15	0.235	97.42952	85.75	134.0	133.0
921.0	1840.15	0.2348	97.3466	86.5	136.0	134.0
928.0	1854.15	0.235	97.42952	87.25	137.0	135.0
934.0	1866.15	0.235	97.42952	88.0	138.0	136.0
940.0	1878.15	0.2348	97.3466	89.0	140.0	137.0
944.0	1886.15	0.2349	97.38806	89.75	141.0	138.0
949.0	1896.15	0.2348	97.3466	90.5	141.0	139.0
955.0	1908.15	0.2346	97.26368	91.25	142.0	140.0
963.0	1924.15	0.2347	97.30514	92.0	142.0	141.0
968.0	1934.15	0.2347	97.30514	92.75	143.0	142.0
972.0	1942.15	0.2347	97.30514	93.5	145.0	143.0
976.0	1950.15	0.2346	97.26368	94.25	146.0	143.0
981.0	1960.151	0.2346	97.26368	95.0	146.0	144.0
987.0	1972.151	0.2344	97.18076	95.75	147.0	145.0
993.0	1984.151	0.2344	97.18076	96.5	147.0	146.0
998.0	1994.151	0.2342	97.09784	97.25	148.0	147.0
1002.0	2002.151	0.2341	97.05638	98.0	150.0	148.0
1006.0	2010.151	0.2341	97.05638	98.75	151.0	148.0
1011.0	2020.151	0.2341	97.05638	99.5	152.0	149.0
1017.0	2032.151	0.234	97.01493	100.25	152.0	150.0
1023.0	2044.153	0.2339	96.97347	101.0	152.0	151.0
1029.0	2056.153	0.2339	96.97347	101.75	153.0	152.0
1033.0	2064.153	0.2337	96.89055	102.5	155.0	153.0
1037.0	2072.153	0.2337	96.89055	103.25	156.0	154.0
1044.0	2086.153	0.2337	96.89055	104.0	156.0	155.0
1050.0	2098.153	0.2337	96.89055	104.75	157.0	156.0
1054.0	2106.153	0.2335	96.80763	105.5	158.0	156.0
1058.0	2114.153	0.2334	96.76617	106.25	158.0	157.0
1062.0	2122.153	0.2334	96.76617	107.0	159.0	158.0
1068.0	2134.153	0.2333	96.72471	108.0	161.0	159.0
1073.0	2144.153	0.2333	96.72471	108.75	162.0	160.0
1081.0	2160.153	0.2333	96.72471	109.5	162.0	161.0
1088.0	2174.153	0.2331	96.64179	110.25	163.0	162.0
1091.0	2180.153	0.233	96.60033	111.0	163.0	163.0
1094.0	2186.153	0.233	96.60033	111.75	164.0	163.0
1098.0	2194.153	0.2331	96.64179	112.5	166.0	164.0
1102.0	2202.153	0.233	96.60033	113.25	167.0	164.0
1106.0	2210.153	0.2331	96.64179	114.0	167.0	165.0
1113.0	2224.153	0.2329	96.55887	114.75	168.0	166.0
1120.0	2238.153	0.2327	96.47595	115.5	168.0	167.0
1125.0	2248.153	0.2326	96.43449	116.25	169.0	168.0
1129.0	2256.153	0.2326	96.43449	117.0	171.0	169.0
1133.0	2264.153	0.2326	96.43449	118.0	172.0	170.0
1137.0	2272.153	0.2325	96.39303	118.75	173.0	170.0
1143.0	2284.153	0.2325	96.39303	119.5	173.0	171.0
1150.0	2298.153	0.2322	96.26866	120.25	173.0	172.0
1155.0	2308.153	0.2321	96.2272	121.0	174.0	173.0
1160.0	2318.153	0.2321	96.2272	121.75	175.0	174.0
1164.0	2326.153	0.232	96.18574	122.5	177.0	175.0
1168.0	2334.153	0.2319	96.14428	123.25	177.0	175.0
1176.0	2350.153	0.2318	96.10282	124.0	178.0	177.0
1183.0	2364.153	0.2318	96.10282	124.75	178.0	178.0
1188.0	2374.153	0.2316	96.0199	125.75	179.0	179.0
1192.0	2382.153	0.2315	95.97844	126.5	180.0	180.0
1196.0	2390.153	0.2315	95.97844	127.25	182.0	180.0
1200.0	2398.155	0.2315	95.97844	128.0	183.0	181.0
1207.0	2412.155	0.2314	95.93698	128.75	183.0	182.0
1213.0	2424.155	0.2311	95.8126	129.5	184.0	183.0
1219.0	2436.155	0.231	95.77114	130.25	184.0	184.0
1223.0	2444.155	0.231	95.77114	131.0	185.0	185.0
1228.0	2454.155	0.2309	95.72968	131.75	186.0	186.0
1232.0	2462.155	0.2309	95.72968	132.5	188.0	186.0
1238.0	2474.155	0.2308	95.68823	133.25	189.0	187.0
1247.0	2492.155	0.2306	95.60531	134.0	189.0	189.0
1252.0	2502.155	0.2305	95.56385	134.75	189.0	190.0
1256.0	2510.155	0.2304	95.52239	135.5	190.0	190.0
1259.0	2516.155	0.2304	95.52239	136.25	192.0	191.0
1262.0	2522.155	0.2305	95.56385	137.0	192.0	191.0
1266.0	2530.155	0.2305	95.56385	137.75	194.0	192.0
1271.0	2540.155	0.2303	95.48093	138.5	195.0	193.0
1279.0	2556.155	0.2301	95.39801	139.25	195.0	194.0
1285.0	2568.155	0.2302	95.43947	140.0	195.0	195.0
1290.0	2578.155	0.2299	95.31509	141.0	196.0	196.0
1294.0	2586.155	0.2298	95.27363	141.75	197.0	197.0
1299.0	2596.155	0.2296	95.19071	142.5	199.0	197.0
1302.0	2602.155	0.2297	95.23217	143.25	200.0	198.0
1313.0	2624.155	0.2295	95.14925	144.0	199.0	200.0
1319.0	2636.155	0.2293	95.06633	144.75	200.0	201.0
1323.0	2644.155	0.2291	94.98342	145.5	202.0	201.0
1326.0	2650.155	0.2291	94.98342	146.25	203.0	202.0
1329.0	2656.155	0.2291	94.98342	147.0	203.0	202.0
1333.0	2664.155	0.229	94.94196	147.75	204.0	203.0
1340.0	2678.155	0.229	94.94196	148.5	206.0	204.0
1349.0	2696.155	0.2289	94.9005	149.25	206.0	206.0
1352.0	2702.155	0.2288	94.85904	150.0	206.0	206.0
1356.0	2710.155	0.2287	94.81758	151.0	208.0	207.0
1360.0	2718.155	0.2285	94.73466	151.75	209.0	208.0
1364.0	2726.155	0.2283	94.65174	152.5	209.0	208.0
1369.0	2736.155	0.2283	94.65174	153.25	209.0	209.0
1374.0	2746.155	0.2282	94.61028	154.0	210.0	210.0
1380.0	2758.155	0.2281	94.56882	154.75	211.0	211.0
1383.0	2764.155	0.228	94.52736	155.5	213.0	211.0
1390.0	2778.156	0.2278	94.44444	156.25	214.0	213.0
1399.0	2796.157	0.2277	94.40299	157.0	214.0	214.0
1402.0	2802.157	0.2276	94.36153	157.75	215.0	215.0
1406.0	2810.157	0.2275	94.32007	158.75	216.0	215.0
1410.0	2818.157	0.2275	94.32007	159.5	217.0	216.0
1414.0	2826.157	0.2272	94.19569	160.25	218.0	217.0
1419.0	2836.157	0.2272	94.19569	161.0	218.0	218.0
1425.0	2848.157	0.227	94.11277	161.75	219.0	219.0
1431.0	2860.157	0.2268	94.02985	162.75	221.0	220.0
1435.0	2868.157	0.2268	94.02985	163.5	222.0	220.0
1442.0	2882.157	0.2266	93.94693	164.25	222.0	221.0
1450.0	2898.158	0.2264	93.86401	165.0	222.0	223.0
1454.0	2906.158	0.2262	93.78109	165.75	223.0	223.0
1458.0	2914.158	0.226	93.69818	166.5	225.0	224.0
1462.0	2922.158	0.2259	93.65672	167.5	226.0	225.0
1467.0	2932.158	0.2258	93.61526	168.25	226.0	226.0
1473.0	2944.158	0.2258	93.61526	169.0	227.0	227.0
1479.0	2956.158	0.2256	93.53234	169.75	227.0	228.0
1484.0	2966.158	0.2256	93.53234	170.75	229.0	228.0
1490.0	2978.158	0.2255	93.49088	171.75	230.0	229.0
1495.0	2988.158	0.2252	93.3665	172.5	231.0	230.0
1501.0	3000.158	0.2251	93.32504	173.25	231.0	231.0
1507.0	3012.158	0.2249	93.24212	174.25	232.0	232.0
1510.0	3018.158	0.2249	93.24212	175.0	233.0	233.0
1514.0	3026.158	0.2248	93.20066	175.75	234.0	233.0
1519.0	3036.158	0.2246	93.11774	176.5	235.0	234.0
1525.0	3048.158	0.2245	93.07629	177.25	235.0	235.0
1532.0	3062.158	0.2242	92.95191	178.25	237.0	236.0
1537.0	3072.158	0.2241	92.91045	179.0	237.0	237.0
1542.0	3082.158	0.2239	92.82753	179.75	238.0	238.0
1546.0	3090.158	0.2237	92.74461	180.5	239.0	239.0
1550.0	3098.158	0.2238	92.78607	181.25	240.0	239.0
1555.0	3108.158	0.2236	92.70315	182.25	241.0	240.0
1559.0	3116.158	0.2234	92.62023	183.0	241.0	241.0
1563.0	3124.158	0.2232	92.53731	183.75	242.0	242.0
1568.0	3134.158	0.2231	92.49585	184.75	243.0	242.0
1571.0	3140.158	0.2232	92.53731	185.5	243.0	243.0
1575.0	3148.16	0.223	92.45439	186.25	245.0	244.0
1581.0	3160.16	0.2225	92.2471	187.0	246.0	245.0
1589.0	3176.16	0.2225	92.2471	187.75	245.0	246.0
1593.0	3184.16	0.2222	92.12272	188.5	246.0	247.0
1597.0	3192.16	0.2223	92.16418	189.25	247.0	247.0
1600.0	3198.16	0.2221	92.08126	190.0	248.0	248.0
1603.0	3204.16	0.222	92.0398	190.75	249.0	248.0
1608.0	3214.16	0.222	92.0398	191.5	250.0	249.0
1613.0	3224.16	0.2218	91.95688	192.25	250.0	250.0
1617.0	3232.16	0.2215	91.8325	193.0	251.0	251.0
1621.0	3240.16	0.2215	91.8325	193.75	251.0	251.0
1625.0	3248.16	0.2212	91.70813	194.5	252.0	252.0
1630.0	3258.16	0.2212	91.70813	195.25	254.0	253.0
1638.0	3274.16	0.2208	91.54229	196.0	254.0	254.0
1646.0	3290.16	0.2205	91.41791	196.75	255.0	256.0
1651.0	3300.16	0.2203	91.33499	197.5	257.0	256.0
1656.0	3310.16	0.2202	91.29353	198.25	258.0	257.0
1660.0	3318.16	0.22	91.21061	199.0	259.0	258.0
1666.0	3330.16	0.2199	91.16915	199.75	259.0	259.0
1671.0	3340.16	0.2197	91.08624	200.5	260.0	260.0
1676.0	3350.16	0.2197	91.08624	201.25	261.0	261.0
1679.0	3356.16	0.2194	90.96186	202.0	261.0	261.0
1684.0	3366.16	0.219	90.79602	202.75	263.0	262.0
1691.0	3380.16	0.2189	90.75456	203.5	263.0	263.0
1698.0	3394.161	0.2187	90.67164	204.25	264.0	264.0
1702.0	3402.161	0.2186	90.63018	205.0	265.0	265.0
1705.0	3408.161	0.2186	90.63018	205.75	266.0	265.0
1709.0	3416.161	0.2183	90.5058	206.5	266.0	266.0
1713.0	3424.163	0.2184	90.54726	207.25	267.0	267.0
1717.0	3432.163	0.218	90.38143	208.0	267.0	267.0
1721.0	3440.163	0.218	90.38143	208.75	268.0	268.0
1726.0	3450.163	0.2178	90.29851	209.75	269.0	269.0
1730.0	3458.163	0.2177	90.25705	210.5	270.0	270.0
1735.0	3468.163	0.2174	90.13267	211.25	271.0	270.0
1739.0	3476.163	0.2172	90.04975	212.0	271.0	271.0
1745.0	3488.163	0.2171	90.00829	212.75	273.0	272.0
1755.0	3508.163	0.2165	89.75954	213.5	273.0	274.0
1759.0	3516.163	0.2166	89.801	214.25	274.0	274.0
1763.0	3524.163	0.2165	89.75954	215.0	275.0	275.0
1767.0	3532.163	0.2163	89.67662	216.0	276.0	276.0
1772.0	3542.163	0.2161	89.5937	216.75	277.0	277.0
1776.0	3550.163	0.216	89.55224	217.5	277.0	277.0
1781.0	3560.163	0.2158	89.46932	218.25	278.0	278.0
1785.0	3568.163	0.2157	89.42786	219.0	279.0	279.0
1790.0	3578.163	0.2158	89.46932	219.75	280.0	280.0
1793.0	3584.163	0.2157	89.42786	220.5	280.0	280.0
1797.0	3592.163	0.2154	89.30348	221.5	281.0	281.0
1801.0	3600.163	0.2151	89.1791	222.25	283.0	281.0
1805.0	3608.163	0.2151	89.1791	223.0	283.0	282.0
1811.0	3620.163	0.2153	89.26202	223.75	283.0	283.0
1816.0	3630.163	0.2152	89.22056	224.5	284.0	284.0
1819.0	3636.163	0.2149	89.09619	225.25	284.0	284.0
1823.0	3644.164	0.2141	88.76451	226.0	285.0	285.0
1826.0	3650.164	0.2146	88.97181	226.75	286.0	286.0
1830.0	3658.164	0.2146	88.97181	227.5	287.0	286.0
1835.0	3668.164	0.2141	88.76451	228.25	287.0	287.0
1839.0	3676.164	0.2142	88.80597	229.0	288.0	288.0
1845.0	3688.164	0.2139	88.68159	229.75	289.0	289.0
1850.0	3698.164	0.2137	88.59867	230.5	290.0	290.0
1855.0	3708.164	0.2136	88.55721	231.25	290.0	290.0
1860.0	3718.164	0.2134	88.4743	232.0	291.0	291.0
1866.0	3730.164	0.2131	88.34992	232.75	293.0	292.0
1873.0	3744.164	0.2132	88.39138	233.5	293.0	294.0
1878.0	3754.164	0.2128	88.22554	234.25	294.0	294.0
1881.0	3760.164	0.2128	88.22554	235.0	295.0	295.0
1885.0	3768.164	0.2128	88.22554	235.75	296.0	296.0
1888.0	3774.164	0.2127	88.18408	236.5	296.0	296.0
1893.0	3784.164	0.2126	88.14262	237.25	297.0	297.0
1898.0	3794.164	0.2126	88.14262	238.25	298.0	298.0
1901.0	3800.164	0.2123	88.01824	239.0	298.0	298.0
1905.0	3808.164	0.2123	88.01824	239.75	299.0	299.0
1909.0	3816.164	0.2122	87.97678	240.5	300.0	300.0
1914.0	3826.164	0.2121	87.93532	241.25	300.0	300.0
1918.0	3834.164	0.212	87.89386	242.0	301.0	301.0
1923.0	3844.164	0.2117	87.76949	242.75	302.0	302.0
1927.0	3852.164	0.2116	87.72803	243.5	304.0	303.0
1937.0	3872.164	0.2114	87.64511	244.25	304.0	304.0
1944.0	3886.164	0.2113	87.60365	245.0	305.0	305.0
1948.0	3894.164	0.2112	87.56219	245.75	306.0	306.0
1951.0	3900.164	0.2111	87.52073	246.5	307.0	307.0
1954.0	3906.164	0.2111	87.52073	247.25	307.0	307.0
1959.0	3916.164	0.211	87.47927	248.0	308.0	308.0
1963.0	3924.168	0.211	87.47927	248.75	309.0	309.0
1967.0	3932.168	0.211	87.47927	249.5	309.0	309.0
1971.0	3940.168	0.2107	87.35489	250.25	310.0	310.0
1975.0	3948.168	0.2108	87.39635	251.0	311.0	311.0
1980.0	3958.168	0.2106	87.31343	251.75	311.0	311.0
1984.0	3966.168	0.2106	87.31343	252.5	312.0	312.0
1989.0	3976.168	0.2107	87.35489	253.25	313.0	313.0
1993.0	3984.168	0.2105	87.27197	254.0	314.0	314.0
1997.0	3992.168	0.2105	87.27197	254.75	314.0	314.0
2001.0	4000.168	0.2105	87.27197	255.5	316.0	315.0
2008.0	4014.168	0.2103	87.18905	256.25	316.0	316.0
2015.0	4028.168	0.2101	87.10614	257.0	317.0	317.0
2019.0	4036.168	0.21	87.06468	257.75	318.0	318.0
2022.0	4042.168	0.2099	87.02322	258.5	319.0	318.0
2026.0	4050.168	0.2099	87.02322	259.25	319.0	319.0
2030.0	4058.168	0.2099	87.02322	260.0	320.0	320.0
2035.0	4068.168	0.2098	86.98176	260.75	321.0	321.0
2040.0	4078.168	0.2098	86.98176	261.5	321.0	321.0
2044.0	4086.168	0.2097	86.9403	262.25	322.0	322.0
2048.0	4094.168	0.2096	86.89884	263.0	323.0	323.0
2052.0	4102.168	0.2097	86.9403	263.75	324.0	323.0
2056.0	4110.168	0.2096	86.89884	264.5	324.0	324.0
2060.0	4118.168	0.2095	86.85738	265.25	325.0	325.0
2064.0	4126.168	0.2094	86.81592	266.0	326.0	325.0
2069.0	4136.168	0.2094	86.81592	266.75	326.0	326.0
2073.0	4144.168	0.2093	86.77446	267.5	327.0	327.0
2077.0	4152.168	0.2093	86.77446	268.25	329.0	328.0
2084.0	4166.168	0.2095	86.85738	269.0	329.0	329.0
2091.0	4180.17	0.209	86.65008	270.0	329.0	330.0
2096.0	4190.17	0.2093	86.77446	271.0	331.0	331.0
2099.0	4196.17	0.2091	86.69154	271.75	332.0	331.0
2103.0	4204.17	0.2091	86.69154	272.5	332.0	332.0
2107.0	4212.17	0.2091	86.69154	273.25	333.0	333.0
2112.0	4222.17	0.209	86.65008	274.0	333.0	334.0
2116.0	4230.17	0.2092	86.733	274.75	334.0	334.0
2120.0	4238.17	0.2088	86.56716	275.5	335.0	335.0
2123.0	4244.17	0.2088	86.56716	276.25	335.0	335.0
2127.0	4252.17	0.2089	86.60862	277.0	336.0	336.0
2131.0	4260.17	0.2089	86.60862	277.75	337.0	337.0
2136.0	4270.17	0.2088	86.56716	278.5	337.0	338.0
2140.0	4278.17	0.2088	86.56716	279.25	338.0	338.0
2145.0	4288.17	0.2093	86.77446	280.25	339.0	339.0
2148.0	4294.17	0.2088	86.56716	281.0	340.0	340.0
2151.0	4300.17	0.2091	86.69154	281.75	340.0	340.0
2154.0	4306.17	0.2089	86.60862	282.5	341.0	341.0
2157.0	4312.17	0.2091	86.69154	283.25	341.0	341.0
2160.0	4318.17	0.209	86.65008	284.0	341.0	342.0
2168.0	4334.17	0.2085	86.44279	284.75	343.0	343.0
2176.0	4350.17	0.2085	86.44279	285.5	344.0	344.0
2180.0	4358.173	0.2085	86.44279	286.25	344.0	345.0
2183.0	4364.173	0.2085	86.44279	287.0	345.0	345.0
2186.0	4370.173	0.2087	86.5257	287.75	346.0	346.0
2190.0	4378.173	0.2083	86.35987	288.5	347.0	347.0
2196.0	4390.173	0.2083	86.35987	289.25	347.0	348.0
2200.0	4398.173	0.2084	86.40133	290.0	348.0	348.0
2205.0	4408.173	0.2083	86.35987	290.75	349.0	349.0
2211.0	4420.173	0.2082	86.31841	291.75	350.0	350.0
2217.0	4432.173	0.2082	86.31841	292.5	351.0	351.0
2221.0	4440.173	0.2082	86.31841	293.25	351.0	352.0
2224.0	4446.174	0.2084	86.40133	294.0	352.0	352.0
2227.0	4452.174	0.2081	86.27695	295.0	353.0	353.0
2231.0	4460.177	0.208	86.23549	295.75	354.0	353.0
2236.0	4470.177	0.208	86.23549	296.5	354.0	354.0
2242.0	4482.177	0.208	86.23549	297.5	355.0	355.0
2247.0	4492.178	0.208	86.23549	298.25	356.0	356.0
2251.0	4500.178	0.2079	86.19403	299.0	357.0	357.0
2256.0	4510.178	0.2079	86.19403	299.75	359.0	358.0
2264.0	4526.178	0.2079	86.19403	300.5	359.0	359.0
2272.0	4542.181	0.2079	86.19403	301.25	359.0	360.0
2275.0	4548.181	0.2079	86.19403	302.0	360.0	361.0
2278.0	4554.181	0.2078	86.15257	303.0	362.0	361.0
2282.0	4562.182	0.2077	86.11111	303.75	363.0	362.0
2286.0	4570.182	0.2077	86.11111	304.5	363.0	363.0
2292.0	4582.182	0.2078	86.15257	305.25	363.0	364.0
2297.0	4592.182	0.2079	86.19403	306.0	364.0	364.0
2300.0	4598.183	0.2077	86.11111	307.0	365.0	365.0
2303.0	4604.183	0.2078	86.15257	307.75	366.0	365.0
2307.0	4612.183	0.2076	86.06965	308.5	366.0	366.0
2310.0	4618.183	0.2077	86.11111	0.0	367.0	367.0
2313.0	6902.93	0.2048	84.90879	511.0	557.0	558.0
2317.0	6910.93	0.2047	84.86733	512.0	559.0	559.0
2321.0	6918.93	0.2048	84.90879	512.75	559.0	559.0
2325.0	6926.93	0.2047	84.86733	513.5	559.0	560.0
2329.0	6934.93	0.2048	84.90879	514.25	560.0	561.0
2333.0	6942.93	0.2048	84.90879	515.0	561.0	561.0
2338.0	6952.93	0.2047	84.86733	516.0	562.0	562.0
2343.0	6962.93	0.2048	84.90879	516.75	563.0	563.0
2349.0	6974.93	0.2048	84.90879	517.5	564.0	564.0
2352.0	6980.93	0.2046	84.82587	518.25	564.0	564.0
2357.0	6990.93	0.2047	84.86733	519.25	565.0	565.0
2361.0	6998.93	0.2047	84.86733	520.0	566.0	566.0
2368.0	7012.93	0.2045	84.78441	520.75	567.0	567.0
2373.0	7022.93	0.205	84.99171	521.5	567.0	568.0
2376.0	7028.93	0.2047	84.86733	522.25	568.0	568.0
2379.0	7034.93	0.2046	84.82587	523.5	569.0	569.0
2385.0	7046.93	0.2047	84.86733	524.5	570.0	570.0
2392.0	7060.93	0.2047	84.86733	525.5	571.0	571.0
2396.0	7068.932	0.2046	84.82587	526.25	571.0	572.0
2399.0	7074.932	0.2047	84.86733	527.0	572.0	572.0
2402.0	7080.932	0.2048	84.90879	527.75	573.0	573.0
2406.0	7088.932	0.2046	84.82587	528.75	574.0	573.0
2411.0	7098.932	0.2046	84.82587	529.5	574.0	574.0
2417.0	7110.933	0.2045	84.78441	530.25	575.0	575.0
2424.0	7124.933	0.2045	84.78441	531.0	576.0	576.0
2428.0	7132.933	0.2046	84.82587	531.75	577.0	577.0
2432.0	7140.933	0.2047	84.86733	532.5	578.0	578.0
2435.0	7146.933	0.2047	84.86733	533.25	578.0	578.0
2438.0	7152.933	0.2047	84.86733	534.0	579.0	579.0
2443.0	7162.933	0.2046	84.82587	534.75	580.0	580.0
2451.0	7178.933	0.2046	84.82587	535.5	581.0	581.0
2456.0	7188.933	0.2048	84.90879	536.25	581.0	582.0
2459.0	7194.933	0.2046	84.82587	537.0	582.0	582.0
2462.0	7200.933	0.2045	84.78441	537.75	583.0	583.0
2466.0	7208.933	0.2048	84.90879	538.5	584.0	584.0
2471.0	7218.933	0.2046	84.82587	539.25	584.0	584.0
2476.0	7228.933	0.2047	84.86733	540.0	585.0	585.0
2481.0	7238.933	0.2046	84.82587	540.75	585.0	586.0
2485.0	7246.933	0.2045	84.78441	541.75	586.0	587.0
2489.0	7254.933	0.2046	84.82587	542.5	587.0	587.0
2493.0	7262.933	0.2046	84.82587	543.25	588.0	588.0
2499.0	7274.934	0.2045	84.78441	544.0	589.0	589.0
2502.0	7280.934	0.2046	84.82587	544.75	589.0	590.0
2506.0	7288.934	0.2045	84.78441	545.5	590.0	590.0
2510.0	7296.934	0.2044	84.74295	546.25	591.0	591.0
2513.0	7302.934	0.2044	84.74295	547.0	591.0	591.0
2518.0	7312.934	0.2045	84.78441	547.75	593.0	592.0
2525.0	7326.934	0.2046	84.82587	548.5	593.0	593.0
2530.0	7336.934	0.2045	84.78441	549.25	594.0	594.0
2534.0	7344.934	0.2044	84.74295	550.0	595.0	595.0
2537.0	7350.934	0.2044	84.74295	550.75	595.0	595.0
2541.0	7358.935	0.2045	84.78441	551.5	596.0	596.0
2546.0	7368.935	0.2046	84.82587	552.25	596.0	597.0
2549.0	7374.935	0.2045	84.78441	553.0	597.0	597.0
2553.0	7382.935	0.2043	84.70149	554.0	598.0	598.0
2560.0	7396.935	0.2042	84.66003	554.75	599.0	599.0
2567.0	7410.937	0.2043	84.70149	556.0	599.0	600.0
2570.0	7416.937	0.2044	84.74295	557.0	600.0	601.0
2573.0	7422.937	0.2043	84.70149	558.25	601.0	601.0
2576.0	7428.937	0.2044	84.74295	559.0	602.0	602.0
2583.0	7442.937	0.2045	84.78441	559.75	603.0	603.0
2590.0	7456.937	0.2042	84.66003	560.5	604.0	604.0
2594.0	7464.937	0.2044	84.74295	561.25	604.0	605.0
2598.0	7472.938	0.2044	84.74295	562.25	605.0	606.0
2602.0	7480.942	0.2043	84.70149	563.0	606.0	606.0
2606.0	7488.942	0.2042	84.66003	563.75	607.0	607.0
2613.0	7502.947	0.2044	84.74295	564.5	608.0	608.0
2618.0	7512.947	0.2044	84.74295	565.25	608.0	609.0
2621.0	7518.947	0.2045	84.78441	566.0	609.0	609.0
2624.0	7524.947	0.2045	84.78441	566.75	610.0	610.0
2628.0	7532.947	0.2046	84.82587	567.5	611.0	611.0
2635.0	7546.947	0.2044	84.74295	568.25	611.0	612.0
2639.0	7554.947	0.2043	84.70149	569.0	612.0	612.0
2645.0	7566.947	0.2042	84.66003	569.75	613.0	613.0
2648.0	7572.947	0.2042	84.66003	570.5	614.0	614.0
2653.0	7582.947	0.2042	84.66003	571.25	615.0	615.0
2657.0	7590.947	0.2043	84.70149	572.0	615.0	616.0
2662.0	7600.947	0.2043	84.70149	572.75	616.0	616.0
2667.0	7610.947	0.2043	84.70149	573.5	617.0	617.0
2670.0	7616.947	0.2043	84.70149	574.25	617.0	618.0
2674.0	7624.947	0.2044	84.74295	575.0	618.0	618.0
2678.0	7632.949	0.2042	84.66003	575.75	619.0	619.0
2684.0	7644.95	0.2044	84.74295	576.5	620.0	620.0
2689.0	7654.953	0.2042	84.66003	577.25	620.0	621.0
2693.0	7662.954	0.2043	84.70149	578.0	621.0	622.0
2696.0	7668.954	0.2043	84.70149	578.75	622.0	622.0
2699.0	7674.956	0.2043	84.70149	579.5	622.0	623.0
2704.0	7684.958	0.2042	84.66003	580.25	623.0	623.0
2709.0	7694.958	0.2041	84.61857	581.0	624.0	624.0
2714.0	7704.958	0.2043	84.70149	581.75	625.0	625.0
2719.0	7714.958	0.2042	84.66003	582.5	626.0	626.0
2723.0	7722.958	0.2042	84.66003	583.25	626.0	627.0
2727.0	7730.958	0.2041	84.61857	584.0	627.0	627.0
2732.0	7740.958	0.2044	84.74295	584.75	628.0	628.0
2737.0	7750.961	0.2043	84.70149	585.5	629.0	629.0
2742.0	7760.961	0.2043	84.70149	586.25	630.0	630.0
2747.0	7770.961	0.2042	84.66003	587.0	631.0	631.0
2750.0	7776.961	0.2043	84.70149	587.75	630.0	631.0
2754.0	7784.961	0.2042	84.66003	588.5	632.0	632.0
2758.0	7792.961	0.2041	84.61857	589.5	633.0	632.0
2764.0	7804.961	0.2042	84.66003	590.25	633.0	633.0
2768.0	7812.961	0.2043	84.70149	591.0	634.0	634.0
2772.0	7820.961	0.2042	84.66003	591.75	634.0	635.0
2775.0	7826.961	0.2042	84.66003	592.5	635.0	635.0
2780.0	7836.961	0.2041	84.61857	593.25	636.0	636.0
2786.0	7848.961	0.2042	84.66003	594.0	637.0	637.0
2790.0	7856.961	0.2042	84.66003	594.75	638.0	638.0
2794.0	7864.964	0.2042	84.66003	595.5	638.0	638.0
2800.0	7876.964	0.2042	84.66003	596.25	639.0	639.0
2804.0	7884.964	0.2042	84.66003	597.0	640.0	640.0
2809.0	7894.965	0.2042	84.66003	597.75	641.0	641.0
2816.0	7908.965	0.2041	84.61857	598.5	642.0	642.0
2822.0	7920.965	0.204	84.57711	599.5	643.0	643.0
2826.0	7928.965	0.2041	84.61857	600.5	643.0	644.0
2829.0	7934.966	0.204	84.57711	601.5	644.0	644.0
2832.0	7940.966	0.204	84.57711	602.5	644.0	645.0
2835.0	7946.967	0.2041	84.61857	603.25	646.0	645.0
2839.0	7954.969	0.2041	84.61857	604.0	646.0	646.0
2843.0	7962.969	0.2041	84.61857	604.75	647.0	647.0
2847.0	7970.97	0.2045	84.78441	605.5	647.0	647.0
2851.0	7978.972	0.2044	84.74295	606.25	648.0	648.0
2855.0	7986.972	0.2041	84.61857	607.0	649.0	649.0
2859.0	7994.972	0.2041	84.61857	607.75	649.0	649.0
2863.0	8002.973	0.2041	84.61857	608.5	650.0	650.0
2869.0	8014.973	0.204	84.57711	609.25	651.0	651.0
2877.0	8030.973	0.204	84.57711	610.0	652.0	652.0
2881.0	8038.973	0.204	84.57711	610.75	653.0	653.0
2885.0	8046.974	0.2039	84.53566	611.5	654.0	654.0
2889.0	8054.974	0.204	84.57711	612.25	655.0	654.0
2897.0	8070.974	0.204	84.57711	613.0	656.0	656.0
2901.0	8078.974	0.2042	84.66003	613.75	656.0	656.0
2905.0	8086.974	0.2042	84.66003	614.5	656.0	657.0
2908.0	8092.974	0.2042	84.66003	615.25	657.0	658.0
2912.0	8100.974	0.2042	84.66003	616.5	658.0	658.0
2916.0	8108.974	0.2039	84.53566	617.25	659.0	659.0
2924.0	8124.974	0.204	84.57711	618.0	660.0	660.0
2930.0	8136.974	0.2036	84.41128	618.75	661.0	661.0
2934.0	8144.974	0.2038	84.4942	619.5	662.0	662.0
2939.0	8154.975	0.204	84.57711	620.25	663.0	663.0
2944.0	8164.977	0.204	84.57711	621.0	663.0	664.0
2948.0	8172.978	0.2039	84.53566	621.75	664.0	664.0
2953.0	8182.98	0.204	84.57711	622.5	665.0	665.0
2957.0	8190.98	0.204	84.57711	623.25	666.0	666.0
2962.0	8200.98	0.204	84.57711	624.0	666.0	667.0
2967.0	8210.98	0.204	84.57711	624.75	667.0	667.0
2972.0	8220.98	0.2042	84.66003	625.75	668.0	668.0
2976.0	8228.98	0.2042	84.66003	626.75	669.0	669.0
2980.0	8236.98	0.204	84.57711	627.5	669.0	670.0
2984.0	8244.98	0.2039	84.53566	628.25	670.0	670.0
2990.0	8256.98	0.2038	84.4942	629.0	671.0	671.0
2995.0	8266.98	0.2038	84.4942	629.75	671.0	672.0
2998.0	8272.98	0.2039	84.53566	630.5	672.0	673.0
3001.0	8278.982	0.2039	84.53566	631.5	672.0	673.0
3004.0	8284.982	0.2039	84.53566	632.5	674.0	674.0
3008.0	8292.983	0.2039	84.53566	633.25	674.0	674.0
3016.0	8308.983	0.2039	84.53566	634.0	675.0	676.0
3020.0	8316.983	0.2039	84.53566	634.75	676.0	676.0
3023.0	8322.983	0.2039	84.53566	635.5	676.0	677.0
3026.0	8328.983	0.2038	84.4942	636.25	677.0	677.0
3030.0	8336.983	0.2038	84.4942	637.0	678.0	678.0
3036.0	8348.983	0.204	84.57711	637.75	679.0	679.0
3042.0	8360.983	0.2039	84.53566	638.5	680.0	680.0
3048.0	8372.983	0.2039	84.53566	639.25	681.0	681.0
3052.0	8380.983	0.2037	84.45274	640.0	681.0	682.0
3056.0	8388.984	0.2037	84.45274	641.0	682.0	682.0
3064.0	8404.985	0.2038	84.4942	641.75	684.0	684.0
3070.0	8416.985	0.2038	84.4942	642.5	684.0	685.0
3073.0	8422.985	0.2038	84.4942	643.25	685.0	685.0
3079.0	8434.986	0.2037	84.45274	644.25	686.0	686.0
3085.0	8446.986	0.2037	84.45274	645.0	687.0	687.0
3089.0	8454.986	0.2038	84.4942	645.75	687.0	688.0
3092.0	8460.986	0.2038	84.4942	646.5	688.0	688.0
3098.0	8472.986	0.2037	84.45274	647.25	689.0	689.0
3103.0	8482.986	0.2037	84.45274	648.0	690.0	690.0
3108.0	8492.986	0.2038	84.4942	648.75	691.0	691.0
3113.0	8502.986	0.2037	84.45274	649.5	692.0	692.0
3118.0	8512.987	0.2037	84.45274	650.25	692.0	693.0
3123.0	8522.987	0.2037	84.45274	651.0	693.0	694.0
3127.0	8530.987	0.2036	84.41128	652.0	693.0	694.0
3130.0	8536.987	0.2037	84.45274	653.0	694.0	695.0
3133.0	8542.987	0.2036	84.41128	654.0	695.0	695.0
3136.0	8548.987	0.2037	84.45274	655.0	696.0	696.0
3144.0	8564.99	0.2037	84.45274	655.75	697.0	697.0
3151.0	8578.991	0.2037	84.45274	656.5	698.0	698.0
3155.0	8586.993	0.2037	84.45274	657.25	698.0	699.0
3159.0	8594.995	0.2038	84.4942	658.25	699.0	700.0
3162.0	8600.995	0.2037	84.45274	659.0	700.0	700.0
3169.0	8614.995	0.2037	84.45274	659.75	701.0	701.0
3175.0	8626.995	0.2036	84.41128	660.5	702.0	702.0
3180.0	8636.995	0.2037	84.45274	661.25	703.0	703.0
3185.0	8646.995	0.2036	84.41128	662.0	704.0	704.0
3189.0	8654.995	0.2037	84.45274	662.75	704.0	705.0
3193.0	8662.995	0.2036	84.41128	663.5	705.0	705.0
3199.0	8674.995	0.2036	84.41128	664.25	706.0	706.0
3205.0	8686.995	0.2036	84.41128	665.0	707.0	707.0
3209.0	8694.995	0.2036	84.41128	665.75	708.0	708.0
3215.0	8706.995	0.2036	84.41128	666.5	708.0	709.0
3219.0	8714.995	0.2036	84.41128	667.25	709.0	710.0
3224.0	8724.995	0.2036	84.41128	668.5	710.0	710.0
3227.0	8730.996	0.2036	84.41128	669.25	711.0	711.0
3232.0	8740.998	0.2036	84.41128	670.0	712.0	712.0
3239.0	8755.0	0.2036	84.41128	670.75	712.0	713.0
3242.0	8761.0	0.2036	84.41128	671.5	712.0	713.0
3245.0	8767.0	0.2036	84.41128	672.75	714.0	714.0
3250.0	8777.0	0.2036	84.41128	673.75	715.0	715.0
3256.0	8789.0	0.2036	84.41128	674.5	716.0	716.0
3262.0	8801.0	0.2036	84.41128	675.25	716.0	717.0
3265.0	8807.001	0.2038	84.4942	676.0	717.0	717.0
3270.0	8817.001	0.2037	84.45274	676.75	718.0	718.0
3275.0	8827.003	0.2035	84.36982	677.5	719.0	719.0
3279.0	8835.003	0.2037	84.45274	678.25	720.0	720.0
3284.0	8845.003	0.2036	84.41128	679.0	720.0	720.0
3288.0	8853.006	0.2038	84.4942	679.75	721.0	721.0
3292.0	8861.009	0.2034	84.32836	680.5	722.0	722.0
3298.0	8873.009	0.2037	84.45274	681.25	722.0	723.0
3303.0	8883.009	0.2037	84.45274	682.0	723.0	724.0
3307.0	8891.009	0.2036	84.41128	682.75	724.0	724.0
3310.0	8897.009	0.2036	84.41128	683.5	725.0	725.0
3317.0	8911.009	0.2036	84.41128	684.25	726.0	726.0
3325.0	8927.009	0.2036	84.41128	685.25	726.0	727.0
3328.0	8933.009	0.2036	84.41128	686.0	728.0	728.0
3332.0	8941.009	0.2037	84.45274	686.75	729.0	729.0
3339.0	8955.011	0.2034	84.32836	687.5	729.0	730.0
3342.0	8961.012	0.2037	84.45274	688.5	729.0	730.0
3345.0	8967.012	0.2037	84.45274	689.25	731.0	731.0
3348.0	8973.012	0.2037	84.45274	690.25	730.0	731.0
3351.0	8979.012	0.2037	84.45274	691.25	732.0	732.0
3354.0	8985.012	0.2037	84.45274	692.0	733.0	732.0
3364.0	9005.014	0.2035	84.36982	692.75	733.0	734.0
3368.0	9013.014	0.2037	84.45274	693.5	734.0	735.0
3372.0	9021.014	0.2036	84.41128	694.25	735.0	735.0
3377.0	9031.014	0.2036	84.41128	695.0	736.0	736.0
3383.0	9043.015	0.2036	84.41128	695.75	737.0	737.0
3388.0	9053.016	0.2037	84.45274	696.5	738.0	738.0
3393.0	9063.016	0.2035	84.36982	697.25	739.0	739.0
3398.0	9073.016	0.2037	84.45274	698.0	739.0	740.0
3402.0	9081.016	0.2038	84.4942	698.75	740.0	740.0
3406.0	9089.016	0.2036	84.41128	699.5	741.0	741.0
3411.0	9099.016	0.2037	84.45274	700.25	742.0	742.0
3416.0	9109.016	0.2036	84.41128	701.0	742.0	743.0
3422.0	9121.016	0.2036	84.41128	701.75	744.0	744.0
3426.0	9129.016	0.2036	84.41128	702.5	744.0	744.0
3429.0	9135.016	0.2035	84.36982	703.25	744.0	745.0
3432.0	9141.016	0.2036	84.41128	704.0	745.0	745.0
3435.0	9147.017	0.2036	84.41128	705.0	744.0	746.0
3438.0	9153.018	0.2037	84.45274	706.0	746.0	746.0
3449.0	9175.018	0.2036	84.41128	706.75	747.0	748.0
3453.0	9183.018	0.2036	84.41128	707.75	748.0	749.0
3457.0	9191.018	0.2036	84.41128	708.75	749.0	749.0
3461.0	9199.018	0.2036	84.41128	709.5	750.0	750.0
3472.0	9221.019	0.2037	84.45274	710.25	751.0	752.0
3476.0	9229.019	0.2037	84.45274	711.0	752.0	753.0
3479.0	9235.019	0.2038	84.4942	711.75	753.0	753.0
3484.0	9245.019	0.2037	84.45274	712.5	754.0	754.0
3489.0	9255.019	0.2039	84.53566	713.25	755.0	755.0
3494.0	9265.019	0.2037	84.45274	714.0	756.0	756.0
3500.0	9277.02	0.2039	84.53566	714.75	756.0	757.0
3503.0	9283.021	0.2036	84.41128	715.5	757.0	757.0
3507.0	9291.021	0.2038	84.4942	716.25	758.0	758.0
3511.0	9299.021	0.2035	84.36982	717.0	758.0	758.0
3515.0	9307.021	0.2037	84.45274	718.0	758.0	759.0
3518.0	9313.021	0.2037	84.45274	718.75	759.0	760.0
3521.0	9319.021	0.2037	84.45274	720.0	760.0	760.0
3524.0	9325.021	0.2042	84.66003	721.0	761.0	761.0
3537.0	9351.021	0.2036	84.41128	721.75	763.0	763.0
3543.0	9363.021	0.2035	84.36982	722.5	764.0	764.0
3549.0	9375.021	0.2035	84.36982	723.5	764.0	765.0
3553.0	9383.021	0.2036	84.41128	724.25	765.0	766.0
3561.0	9399.021	0.2037	84.45274	725.0	766.0	767.0
3566.0	9409.021	0.2038	84.4942	725.75	767.0	768.0
3570.0	9417.021	0.2037	84.45274	726.5	768.0	768.0
3573.0	9423.021	0.2035	84.36982	727.25	769.0	769.0
3579.0	9435.021	0.2036	84.41128	728.0	770.0	770.0
3585.0	9447.021	0.2037	84.45274	728.75	770.0	771.0
3589.0	9455.021	0.2041	84.61857	729.5	771.0	772.0
3592.0	9461.021	0.2035	84.36982	730.25	772.0	772.0
3597.0	9471.021	0.2037	84.45274	731.0	772.0	773.0
3600.0	9477.021	0.2037	84.45274	731.75	773.0	773.0
3603.0	9483.021	0.2037	84.45274	732.75	773.0	774.0
3607.0	9491.021	0.2037	84.45274	733.75	774.0	775.0
3616.0	9509.023	0.2036	84.41128	734.75	775.0	776.0
3624.0	9525.024	0.2037	84.45274	735.5	777.0	777.0
3627.0	9531.024	0.2036	84.41128	736.25	777.0	778.0
3633.0	9543.024	0.2035	84.36982	737.0	778.0	779.0
3638.0	9553.024	0.2037	84.45274	737.75	779.0	780.0
3643.0	9563.025	0.2035	84.36982	738.5	781.0	781.0
3648.0	9573.025	0.2038	84.4942	739.25	781.0	781.0
3652.0	9581.025	0.2036	84.41128	740.0	782.0	782.0
3656.0	9589.025	0.2037	84.45274	740.75	782.0	783.0
3662.0	9601.025	0.2037	84.45274	741.5	783.0	784.0
3670.0	9617.025	0.2036	84.41128	742.25	784.0	785.0
3673.0	9623.025	0.2032	84.24544	743.25	784.0	786.0
3676.0	9629.025	0.2036	84.41128	744.75	785.0	786.0
3679.0	9635.025	0.2035	84.36982	745.75	787.0	787.0
3686.0	9649.025	0.2035	84.36982	746.5	787.0	788.0
3694.0	9665.025	0.2035	84.36982	747.25	789.0	789.0
3700.0	9677.025	0.2036	84.41128	748.0	790.0	790.0
3707.0	9691.025	0.2033	84.2869	748.75	791.0	791.0
3711.0	9699.025	0.2035	84.36982	749.5	791.0	792.0
3716.0	9709.025	0.2035	84.36982	750.25	792.0	793.0
3719.0	9715.026	0.2035	84.36982	751.0	794.0	793.0
3732.0	9741.026	0.2035	84.36982	751.75	794.0	795.0
3735.0	9747.026	0.2035	84.36982	752.5	796.0	796.0
3738.0	9753.026	0.2035	84.36982	753.25	796.0	796.0
3741.0	9759.026	0.2035	84.36982	754.5	796.0	797.0
3744.0	9765.026	0.2035	84.36982	755.5	797.0	797.0
3747.0	9771.026	0.2035	84.36982	756.5	798.0	798.0
3750.0	9777.026	0.2036	84.41128	757.25	798.0	798.0
3761.0	9799.026	0.2035	84.36982	758.0	800.0	800.0
3768.0	9813.026	0.2034	84.32836	758.75	801.0	801.0
3772.0	9821.026	0.2035	84.36982	759.5	802.0	802.0
3778.0	9833.026	0.2035	84.36982	760.5	803.0	803.0
3783.0	9843.026	0.2035	84.36982	761.25	803.0	804.0
3789.0	9855.026	0.2035	84.36982	762.0	805.0	805.0
3793.0	9863.026	0.2035	84.36982	762.75	805.0	806.0
3801.0	9879.026	0.2035	84.36982	763.5	807.0	807.0
3805.0	9887.026	0.2035	84.36982	764.25	807.0	808.0
3808.0	9893.026	0.2035	84.36982	765.0	808.0	808.0
3811.0	9899.026	0.2035	84.36982	766.0	808.0	809.0
3814.0	9905.026	0.2035	84.36982	767.0	809.0	809.0
3818.0	9913.026	0.2035	84.36982	768.0	810.0	810.0
3824.0	9925.026	0.2035	84.36982	768.75	811.0	811.0
3835.0	9947.026	0.2035	84.36982	769.5	813.0	813.0
3838.0	9953.026	0.2035	84.36982	770.25	813.0	813.0
3842.0	9961.028	0.2035	84.36982	771.25	814.0	814.0
3853.0	9983.028	0.2034	84.32836	772.0	815.0	816.0
3856.0	9989.028	0.2035	84.36982	772.75	816.0	816.0
3861.0	9999.028	0.2035	84.36982	773.5	817.0	817.0
3865.0	10007.028	0.2035	84.36982	774.25	817.0	818.0
3870.0	10017.028	0.2035	84.36982	775.0	818.0	819.0
3874.0	10025.028	0.2035	84.36982	776.0	818.0	819.0
3877.0	10031.028	0.2035	84.36982	777.25	819.0	820.0
3880.0	10037.028	0.2035	84.36982	778.0	820.0	820.0
3883.0	10043.028	0.2034	84.32836	778.75	821.0	821.0
3898.0	10073.028	0.2035	84.36982	779.5	822.0	823.0
3901.0	10079.028	0.2034	84.32836	780.25	823.0	824.0
3904.0	10085.028	0.2029	84.12106	781.0	824.0	824.0
3916.0	10109.028	0.2033	84.2869	781.75	824.0	826.0
3919.0	10115.028	0.2036	84.41128	782.5	826.0	827.0
3923.0	10123.028	0.2035	84.36982	783.5	828.0	827.0
3931.0	10139.028	0.2035	84.36982	784.5	828.0	829.0
3935.0	10147.028	0.2035	84.36982	785.75	828.0	829.0
3938.0	10153.028	0.2034	84.32836	787.0	830.0	830.0
3941.0	10159.028	0.2034	84.32836	788.0	830.0	830.0
3944.0	10165.028	0.2034	84.32836	788.75	831.0	831.0
3959.0	10195.028	0.2032	84.24544	789.5	833.0	833.0
3963.0	10203.028	0.2035	84.36982	790.25	834.0	834.0
3967.0	10211.028	0.2035	84.36982	791.0	834.0	835.0
3973.0	10223.028	0.2015	83.54063	791.75	835.0	836.0
3979.0	10235.028	0.2036	84.41128	792.5	837.0	837.0
3984.0	10245.028	0.2036	84.41128	793.25	837.0	838.0
3989.0	10255.029	0.2034	84.32836	794.0	838.0	838.0
3993.0	10263.029	0.2035	84.36982	795.0	838.0	839.0
3996.0	10269.029	0.2035	84.36982	796.0	839.0	840.0
3999.0	10275.029	0.2034	84.32836	797.25	841.0	840.0
4004.0	10285.029	0.2033	84.2869	798.0	841.0	841.0
4015.0	10307.029	0.2035	84.36982	798.75	843.0	843.0
4020.0	10317.029	0.2014	83.49917	799.5	843.0	844.0
4027.0	10331.029	0.2035	84.36982	800.25	844.0	845.0
4031.0	10339.029	0.2035	84.36982	801.0	846.0	846.0
4034.0	10345.029	0.2035	84.36982	801.75	846.0	846.0
4044.0	10365.029	0.2034	84.32836	802.75	847.0	848.0
4050.0	10377.029	0.203	84.16252	803.5	848.0	849.0
4053.0	10383.029	0.2034	84.32836	804.25	848.0	849.0
4056.0	10389.029	0.2034	84.32836	805.25	849.0	850.0
4060.0	10397.029	0.2034	84.32836	806.75	851.0	850.0
4063.0	10403.029	0.2035	84.36982	807.5	851.0	851.0
4076.0	10429.03	0.2034	84.32836	808.25	852.0	853.0
4081.0	10439.031	0.203	84.16252	809.25	854.0	854.0
4088.0	10453.031	0.2033	84.2869	810.0	854.0	855.0
4092.0	10461.032	0.2035	84.36982	810.75	856.0	856.0
4099.0	10475.032	0.2034	84.32836	811.5	857.0	857.0
4105.0	10487.032	0.2034	84.32836	812.25	857.0	858.0
4108.0	10493.032	0.2033	84.2869	813.0	858.0	858.0
4111.0	10499.032	0.2034	84.32836	814.0	858.0	859.0
4114.0	10505.032	0.2034	84.32836	814.75	859.0	859.0
4117.0	10511.032	0.2035	84.36982	815.5	860.0	860.0
4123.0	10523.032	0.2023	83.87231	816.25	861.0	861.0
4130.0	10537.033	0.2035	84.36982	817.0	862.0	862.0
4137.0	10551.033	0.2034	84.32836	817.75	863.0	863.0
4142.0	10561.033	0.2034	84.32836	818.5	863.0	864.0
4148.0	10573.033	0.2034	84.32836	819.25	864.0	865.0
4154.0	10585.033	0.2034	84.32836	820.0	866.0	866.0
4158.0	10593.033	0.2033	84.2869	820.75	866.0	867.0
4161.0	10599.033	0.2033	84.2869	821.5	866.0	867.0
4164.0	10605.033	0.2031	84.20398	822.25	867.0	868.0
4168.0	10613.033	0.203	84.16252	823.5	868.0	868.0
4171.0	10619.034	0.2033	84.2869	824.25	869.0	869.0
4177.0	10631.034	0.2017	83.62355	825.0	870.0	870.0
4187.0	10651.034	0.2035	84.36982	825.75	871.0	872.0
4193.0	10663.034	0.2034	84.32836	826.5	872.0	873.0
4197.0	10671.034	0.2029	84.12106	827.25	874.0	873.0
4202.0	10681.034	0.2022	83.83085	828.0	873.0	874.0
4207.0	10691.034	0.2029	84.12106	829.0	875.0	875.0
4212.0	10701.034	0.2032	84.24544	829.75	874.0	876.0
4215.0	10707.034	0.2034	84.32836	830.5	875.0	876.0
4219.0	10715.034	0.2029	84.12106	831.5	877.0	877.0
4225.0	10727.034	0.2033	84.2869	832.5	878.0	878.0
4232.0	10741.034	0.2033	84.2869	833.25	880.0	879.0
4237.0	10751.034	0.2026	83.99668	834.0	880.0	880.0
4241.0	10759.034	0.2029	84.12106	834.75	881.0	881.0
4246.0	10769.034	0.2034	84.32836	835.5	881.0	882.0
4255.0	10787.036	0.2033	84.2869	836.25	883.0	883.0
4261.0	10799.036	0.2034	84.32836	837.0	883.0	884.0
4265.0	10807.036	0.2033	84.2869	837.75	884.0	885.0
4269.0	10815.037	0.2028	84.0796	838.75	885.0	885.0
4272.0	10821.037	0.203	84.16252	839.75	885.0	886.0
4276.0	10829.037	0.2024	83.91376	840.5	886.0	887.0
4285.0	10847.037	0.2027	84.03814	841.25	887.0	888.0
4288.0	10853.037	0.2033	84.2869	842.0	889.0	889.0
4296.0	10869.037	0.2033	84.2869	842.75	890.0	890.0
4305.0	10887.037	0.2032	84.24544	843.5	891.0	891.0
4310.0	10897.037	0.2033	84.2869	844.25	892.0	892.0
4314.0	10905.037	0.2033	84.2869	845.25	892.0	893.0
4317.0	10911.037	0.203	84.16252	846.0	893.0	893.0
4320.0	10917.037	0.2031	84.20398	847.0	895.0	894.0
4326.0	10929.037	0.2032	84.24544	847.75	894.0	895.0
4332.0	10941.037	0.2033	84.2869	848.5	895.0	896.0
4336.0	10949.037	0.2033	84.2869	849.25	897.0	897.0
4341.0	10959.038	0.2033	84.2869	850.0	897.0	897.0
4349.0	10975.038	0.2021	83.78939	851.0	898.0	899.0
4352.0	10981.038	0.2029	84.12106	851.75	898.0	899.0
4357.0	10991.038	0.2034	84.32836	852.5	900.0	900.0
4369.0	11015.038	0.2032	84.24544	850.5	901.0	900.0