File: charts/20230801/DTA/INSATURADAS/STD 5A.txt
#FILE:                       ;DTA_Z5A 20-05-23.ngb-dd9
#FORMAT:                     ;NETZSCH5
#IDENTITY:                   ;Mariana
#DECIMAL:                    ;POINT
#SEPARATOR:                  ;SEMICOLON
#MTYPE:                      ;DTA
#INSTRUMENT:                 ;NETZSCH DSC 404F3
#PROJECT:                    ;Mariana
#DATE/TIME:                  ;11/06/2023 16:04:32
#CORR. FILE:                 ;DTA_Branco 19-05-23.ngb-bd9
#LABORATORY:                 ;DSC/DTA
#OPERATOR:                   ;Pamela
#REMARK:                     ;Mariana
#SAMPLE:                     ;Z5A
#SAMPLE MASS /mg:            ;231.5
#MATERIAL:                   ;B2O3
#REFERENCE:                  ;Empty
#REFERENCE MASS /mg:         ;0
#TYPE OF CRUCIBLE:           ;DTA/TG crucible Al2O3
#SAMPLE CRUCIBLE MASS /mg:   ;1333.42
#REFERENCE CRUCIBLE MASS /mg:;1349.49
#CORR. CODE:                 ;020
#EXO:                        ;-1
#RANGE:                      ;20/10.0(K/min)/1300
#SEGMENT:                    ;S1/1

##Temp./øC;Time/min;DTA/(uV/mg);Sensit./(uV/mW)
  18.74900;0.0000e+000;-2.0795e-002;1.00000
  18.75000;    0.11000;-1.9530e-002;1.00000
  18.72700;    0.22000;-1.8350e-002;1.00000
  18.74200;    0.33000;-1.7289e-002;1.00000
  18.75100;    0.44000;-1.6297e-002;1.00000
  18.77700;    0.55000;-1.5338e-002;1.00000
  18.82700;    0.66000;-1.4422e-002;1.00000
  18.87100;    0.77000;-1.3591e-002;1.00000
  18.96600;    0.88000;-1.2698e-002;1.00000
  19.07000;    0.99000;-1.1815e-002;1.00000
  19.18300;    1.10000;-1.0922e-002;1.00000
  19.32600;    1.21000;-9.9957e-003;1.00000
  19.51300;    1.32000;-9.1091e-003;1.00000
  19.69500;    1.43000;-8.1798e-003;1.00000
  19.90700;    1.54000;-7.1911e-003;1.00000
  20.16800;    1.65000;-6.1859e-003;1.00000
  20.41500;    1.76000;-5.1741e-003;1.00000
  20.71100;    1.87000;-4.1031e-003;1.00000
  21.00800;    1.98000;-3.0320e-003;1.00000
  21.34000;    2.09000;-1.9477e-003;1.00000
  21.69500;    2.20000;-8.5027e-004;1.00000
  22.07400;    2.31000; 2.6365e-004;1.00000
  22.47100;    2.42000; 1.3743e-003;1.00000
  22.86400;    2.53000; 2.4223e-003;1.00000
  23.29000;    2.64000; 3.5131e-003;1.00000
  23.73300;    2.75000; 4.5710e-003;1.00000
  24.22200;    2.86000; 5.6817e-003;1.00000
  24.69800;    2.97000; 6.7659e-003;1.00000
  25.22900;    3.08000; 7.8304e-003;1.00000
  25.77600;    3.19000; 8.8850e-003;1.00000
  26.32700;    3.30000; 9.9495e-003;1.00000
  26.91300;    3.41000; 1.1027e-002;1.00000
  27.53600;    3.52000; 1.2059e-002;1.00000
  28.17100;    3.63000; 1.3077e-002;1.00000
  28.85400;    3.74000; 1.4171e-002;1.00000
  29.53500;    3.85000; 1.5226e-002;1.00000
  30.26200;    3.96000; 1.6251e-002;1.00000
  31.00100;    4.07000; 1.7246e-002;1.00000
  31.79500;    4.18000; 1.8363e-002;1.00000
  32.59600;    4.29000; 1.9421e-002;1.00000
  33.42300;    4.40000; 2.0482e-002;1.00000
  34.27000;    4.51000; 2.1573e-002;1.00000
  35.16000;    4.62000; 2.2667e-002;1.00000
  36.04500;    4.73000; 2.3742e-002;1.00000
  36.98600;    4.84000; 2.4823e-002;1.00000
  37.94500;    4.95000; 2.5950e-002;1.00000
  38.91900;    5.06000; 2.7084e-002;1.00000
  39.90500;    5.17000; 2.8217e-002;1.00000
  40.96000;    5.28000; 2.9285e-002;1.00000
  42.01500;    5.39000; 3.0438e-002;1.00000
  43.07700;    5.50000; 3.1510e-002;1.00000
  44.18500;    5.61000; 3.2647e-002;1.00000
  45.31000;    5.72000; 3.3721e-002;1.00000
  46.43700;    5.83000; 3.4871e-002;1.00000
  47.61200;    5.94000; 3.5978e-002;1.00000
  48.80300;    6.05000; 3.7112e-002;1.00000
  50.02100;    6.16000; 3.8190e-002;1.00000
  51.24500;    6.27000; 3.9277e-002;1.00000
  52.50300;    6.38000; 4.0372e-002;1.00000
  53.78800;    6.49000; 4.1429e-002;1.00000
  55.08300;    6.60000; 4.2557e-002;1.00000
  56.40700;    6.71000; 4.3621e-002;1.00000
  57.75300;    6.82000; 4.4738e-002;1.00000
  59.10700;    6.93000; 4.5862e-002;1.00000
  60.48200;    7.04000; 4.6907e-002;1.00000
  61.88800;    7.15000; 4.8044e-002;1.00000
  63.28500;    7.26000; 4.9145e-002;1.00000
  64.71600;    7.37000; 5.0258e-002;1.00000
  66.16100;    7.48000; 5.1438e-002;1.00000
  67.60900;    7.59000; 5.2602e-002;1.00000
  69.09800;    7.70000; 5.3781e-002;1.00000
  70.58000;    7.81000; 5.5014e-002;1.00000
  72.07200;    7.92000; 5.6214e-002;1.00000
  73.58900;    8.03000; 5.7446e-002;1.00000
  75.07400;    8.14000; 5.8679e-002;1.00000
  76.60900;    8.25000; 5.9951e-002;1.00000
  78.14500;    8.36000; 6.1266e-002;1.00000
  79.69200;    8.47000; 6.2568e-002;1.00000
  81.27100;    8.58000; 6.3919e-002;1.00000
  82.82800;    8.69000; 6.5310e-002;1.00000
  84.40400;    8.80000; 6.6743e-002;1.00000
  85.97800;    8.91000; 6.8206e-002;1.00000
  87.58800;    9.02000; 6.9696e-002;1.00000
  89.19300;    9.13000; 7.1166e-002;1.00000
  90.81800;    9.24000; 7.2787e-002;1.00000
  92.44500;    9.35000; 7.4448e-002;1.00000
  94.04200;    9.46000; 7.6149e-002;1.00000
  95.69500;    9.57000; 7.7896e-002;1.00000
  97.31400;    9.68000; 7.9738e-002;1.00000
  98.93600;    9.79000; 8.1620e-002;1.00000
 100.578;    9.90000; 8.3564e-002;1.00000
 102.219;   10.01000; 8.5591e-002;1.00000
 103.841;   10.12000; 8.7671e-002;1.00000
 105.478;   10.23000; 8.9786e-002;1.00000
 107.111;   10.34000; 9.1932e-002;1.00000
 108.74;   10.45000; 9.4146e-002;1.00000
 110.349;   10.56000; 9.6394e-002;1.00000
 112.007;   10.67000; 9.8688e-002;1.00000
 113.605;   10.78000;     0.10098;1.00000
 115.237;   10.89000;     0.10332;1.00000
 116.852;   11.00000;     0.10562;1.00000
 118.46;   11.11000;     0.10797;1.00000
 120.077;   11.22000;     0.11028;1.00000
 121.674;   11.33000;     0.11261;1.00000
 123.272;   11.44000;     0.11497;1.00000
 124.879;   11.55000;     0.11728;1.00000
 126.468;   11.66000;     0.11959;1.00000
 128.044;   11.77000;     0.12187;1.00000
 129.625;   11.88000;     0.12408;1.00000
 131.208;   11.99000;     0.12630;1.00000
 132.783;   12.10000;     0.12844;1.00000
 134.346;   12.21000;     0.13053;1.00000
 135.909;   12.32000;     0.13254;1.00000
 137.452;   12.43000;     0.13453;1.00000
 138.996;   12.54000;     0.13643;1.00000
 140.553;   12.65000;     0.13827;1.00000
 142.074;   12.76000;     0.14001;1.00000
 143.601;   12.87000;     0.14170;1.00000
 145.117;   12.98000;     0.14331;1.00000
 146.621;   13.09000;     0.14487;1.00000
 148.123;   13.20000;     0.14631;1.00000
 149.615;   13.31000;     0.14770;1.00000
 151.089;   13.42000;     0.14901;1.00000
 152.578;   13.53000;     0.15020;1.00000
 154.022;   13.64000;     0.15138;1.00000
 155.487;   13.75000;     0.15242;1.00000
 156.928;   13.86000;     0.15341;1.00000
 158.364;   13.97000;     0.15431;1.00000
 159.783;   14.08000;     0.15513;1.00000
 161.2;   14.19000;     0.15586;1.00000
 162.595;   14.30000;     0.15656;1.00000
 163.993;   14.41000;     0.15721;1.00000
 165.378;   14.52000;     0.15775;1.00000
 166.764;   14.63000;     0.15826;1.00000
 168.116;   14.74000;     0.15869;1.00000
 169.473;   14.85000;     0.15906;1.00000
 170.818;   14.96000;     0.15935;1.00000
 172.172;   15.07000;     0.15962;1.00000
 173.48;   15.18000;     0.15985;1.00000
 174.807;   15.29000;     0.16002;1.00000
 176.11;   15.40000;     0.16017;1.00000
 177.424;   15.51000;     0.16024;1.00000
 178.724;   15.62000;     0.16030;1.00000
 179.996;   15.73000;     0.16026;1.00000
 181.276;   15.84000;     0.16022;1.00000
 182.562;   15.95000;     0.16012;1.00000
 183.817;   16.06000;     0.16002;1.00000
 185.076;   16.17000;     0.15987;1.00000
 186.311;   16.28000;     0.15969;1.00000
 187.568;   16.39000;     0.15944;1.00000
 188.793;   16.50000;     0.15915;1.00000
 190.019;   16.61000;     0.15796;1.00000
 191.233;   16.72000;     0.15620;1.00000
 192.444;   16.83000;     0.15528;1.00000
 193.65;   16.94000;     0.15468;1.00000
 194.863;   17.05000;     0.15429;1.00000
 196.038;   17.16000;     0.15392;1.00000
 197.22;   17.27000;     0.15353;1.00000
 198.4;   17.38000;     0.15310;1.00000
 199.567;   17.49000;     0.15267;1.00000
 200.724;   17.60000;     0.15215;1.00000
 201.887;   17.71000;     0.15160;1.00000
 203.037;   17.82000;     0.15091;1.00000
 204.178;   17.93000;     0.15021;1.00000
 205.315;   18.04000;     0.14953;1.00000
 206.444;   18.15000;     0.14887;1.00000
 207.575;   18.26000;     0.14798;1.00000
 208.699;   18.37000;     0.14685;1.00000
 209.816;   18.48000;     0.14580;1.00000
 210.934;   18.59000;     0.14487;1.00000
 212.02;   18.70000;     0.14392;1.00000
 213.132;   18.81000;     0.14294;1.00000
 214.228;   18.92000;     0.14187;1.00000
 215.315;   19.03000;     0.14080;1.00000
 216.408;   19.14000;     0.13969;1.00000
 217.496;   19.25000;     0.13857;1.00000
 218.562;   19.36000;     0.13729;1.00000
 219.642;   19.47000;     0.13606;1.00000
 220.726;   19.58000;     0.13476;1.00000
 221.79;   19.69000;     0.13339;1.00000
 222.856;   19.80000;     0.13196;1.00000
 223.927;   19.91000;     0.13053;1.00000
 224.991;   20.02000;     0.12902;1.00000
 226.056;   20.13000;     0.12749;1.00000
 227.108;   20.24000;     0.12591;1.00000
 228.16;   20.35000;     0.12423;1.00000
 229.204;   20.46000;     0.12254;1.00000
 230.265;   20.57000;     0.12078;1.00000
 231.307;   20.68000;     0.11900;1.00000
 232.372;   20.79000;     0.11716;1.00000
 233.415;   20.90000;     0.11525;1.00000
 234.453;   21.01000;     0.11329;1.00000
 235.482;   21.12000;     0.11122;1.00000
 236.534;   21.23000;     0.10923;1.00000
 237.578;   21.34000;     0.10712;1.00000
 238.606;   21.45000;     0.10497;1.00000
 239.662;   21.56000;     0.10276;1.00000
 240.693;   21.67000;     0.10049;1.00000
 241.734;   21.78000; 9.8167e-002;1.00000
 242.771;   21.89000; 9.5788e-002;1.00000
 243.803;   22.00000; 9.3379e-002;1.00000
 244.838;   22.11000; 9.0874e-002;1.00000
 245.876;   22.22000; 8.8379e-002;1.00000
 246.909;   22.33000; 8.5789e-002;1.00000
 247.943;   22.44000; 8.3182e-002;1.00000
 248.977;   22.55000; 8.0483e-002;1.00000
 250.023;   22.66000; 7.7780e-002;1.00000
 251.05;   22.77000; 7.4989e-002;1.00000
 252.083;   22.88000; 7.2158e-002;1.00000
 253.121;   22.99000; 6.9231e-002;1.00000
 254.151;   23.10000; 6.6341e-002;1.00000
 255.181;   23.21000; 6.3339e-002;1.00000
 256.23;   23.32000; 6.0294e-002;1.00000
 257.253;   23.43000; 5.7239e-002;1.00000
 258.286;   23.54000; 5.4118e-002;1.00000
 259.324;   23.65000; 5.0914e-002;1.00000
 260.377;   23.76000; 4.7724e-002;1.00000
 261.415;   23.87000; 4.4435e-002;1.00000
 262.447;   23.98000; 4.1162e-002;1.00000
 263.497;   24.09000; 3.7827e-002;1.00000
 264.53;   24.20000; 3.4462e-002;1.00000
 265.569;   24.31000; 3.1127e-002;1.00000
 266.609;   24.42000; 2.7713e-002;1.00000
 267.648;   24.53000; 2.4299e-002;1.00000
 268.698;   24.64000; 2.0819e-002;1.00000
 269.744;   24.75000; 1.7388e-002;1.00000
 270.77;   24.86000; 1.3845e-002;1.00000
 271.834;   24.97000; 1.0391e-002;1.00000
 272.876;   25.08000; 6.8681e-003;1.00000
 273.93;   25.19000; 3.2989e-003;1.00000
 274.97;   25.30000;-2.2081e-004;1.00000
 276.021;   25.41000;-3.7504e-003;1.00000
 277.079;   25.52000;-7.2899e-003;1.00000
 278.12;   25.63000;-1.0820e-002;1.00000
 279.173;   25.74000;-1.4359e-002;1.00000
 280.217;   25.85000;-1.7912e-002;1.00000
 281.265;   25.96000;-2.1484e-002;1.00000
 282.323;   26.07000;-2.4964e-002;1.00000
 283.375;   26.18000;-2.8438e-002;1.00000
 284.428;   26.29000;-3.1935e-002;1.00000
 285.488;   26.40000;-3.5392e-002;1.00000
 286.549;   26.51000;-3.8809e-002;1.00000
 287.591;   26.62000;-4.2227e-002;1.00000
 288.651;   26.73000;-4.5618e-002;1.00000
 289.702;   26.84000;-4.8957e-002;1.00000
 290.765;   26.95000;-5.2246e-002;1.00000
 291.828;   27.06000;-5.5512e-002;1.00000
 292.881;   27.17000;-5.8755e-002;1.00000
 293.948;   27.28000;-6.1938e-002;1.00000
 295.008;   27.39000;-6.5053e-002;1.00000
 296.059;   27.50000;-6.8167e-002;1.00000
 297.119;   27.61000;-7.1199e-002;1.00000
 298.189;   27.72000;-7.4214e-002;1.00000
 299.249;   27.83000;-7.7197e-002;1.00000
 300.334;   27.94000;-8.0183e-002;1.00000
 301.384;   28.05000;-8.3037e-002;1.00000
 302.453;   28.16000;-8.5838e-002;1.00000
 303.511;   28.27000;-8.8656e-002;1.00000
 304.589;   28.38000;-9.1428e-002;1.00000
 305.653;   28.49000;-9.4146e-002;1.00000
 306.711;   28.60000;-9.6796e-002;1.00000
 307.79;   28.71000;-9.9396e-002;1.00000
 308.859;   28.82000;    -0.10196;1.00000
 309.918;   28.93000;    -0.10454;1.00000
 311.002;   29.04000;    -0.10695;1.00000
 312.074;   29.15000;    -0.10941;1.00000
 313.133;   29.26000;    -0.11183;1.00000
 314.214;   29.37000;    -0.11412;1.00000
 315.282;   29.48000;    -0.11644;1.00000
 316.357;   29.59000;    -0.11870;1.00000
 317.437;   29.70000;    -0.12086;1.00000
 318.508;   29.81000;    -0.12308;1.00000
 319.568;   29.92000;    -0.12516;1.00000
 320.658;   30.03000;    -0.12725;1.00000
 321.727;   30.14000;    -0.12930;1.00000
 322.809;   30.25000;    -0.13131;1.00000
 323.878;   30.36000;    -0.13326;1.00000
 324.942;   30.47000;    -0.13517;1.00000
 326.025;   30.58000;    -0.13705;1.00000
 327.109;   30.69000;    -0.13890;1.00000
 328.19;   30.80000;    -0.14067;1.00000
 329.253;   30.91000;    -0.14245;1.00000
 330.323;   31.02000;    -0.14422;1.00000
 331.404;   31.13000;    -0.14589;1.00000
 332.487;   31.24000;    -0.14757;1.00000
 333.566;   31.35000;    -0.14925;1.00000
 334.637;   31.46000;    -0.15081;1.00000
 335.722;   31.57000;    -0.15241;1.00000
 336.794;   31.68000;    -0.15398;1.00000
 337.88;   31.79000;    -0.15551;1.00000
 338.949;   31.90000;    -0.15695;1.00000
 340.036;   32.01000;    -0.15838;1.00000
 341.115;   32.12000;    -0.15981;1.00000
 342.195;   32.23000;    -0.16118;1.00000
 343.28;   32.34000;    -0.16255;1.00000
 344.365;   32.45000;    -0.16385;1.00000
 345.442;   32.56000;    -0.16519;1.00000
 346.526;   32.67000;    -0.16653;1.00000
 347.603;   32.78000;    -0.16780;1.00000
 348.682;   32.89000;    -0.16905;1.00000
 349.761;   33.00000;    -0.17022;1.00000
 350.844;   33.11000;    -0.17140;1.00000
 351.934;   33.22000;    -0.17253;1.00000
 353.013;   33.33000;    -0.17362;1.00000
 354.104;   33.44000;    -0.17475;1.00000
 355.177;   33.55000;    -0.17584;1.00000
 356.255;   33.66000;    -0.17689;1.00000
 357.333;   33.77000;    -0.17792;1.00000
 358.417;   33.88000;    -0.17892;1.00000
 359.503;   33.99000;    -0.17996;1.00000
 360.579;   34.10000;    -0.18092;1.00000
 361.679;   34.21000;    -0.18194;1.00000
 362.765;   34.32000;    -0.18289;1.00000
 363.843;   34.43000;    -0.18381;1.00000
 364.925;   34.54000;    -0.18477;1.00000
 366.008;   34.65000;    -0.18568;1.00000
 367.091;   34.76000;    -0.18658;1.00000
 368.177;   34.87000;    -0.18744;1.00000
 369.263;   34.98000;    -0.18834;1.00000
 370.339;   35.09000;    -0.18917;1.00000
 371.434;   35.20000;    -0.19002;1.00000
 372.507;   35.31000;    -0.19080;1.00000
 373.601;   35.42000;    -0.19163;1.00000
 374.688;   35.53000;    -0.19244;1.00000
 375.774;   35.64000;    -0.19323;1.00000
 376.861;   35.75000;    -0.19399;1.00000
 377.949;   35.86000;    -0.19476;1.00000
 379.032;   35.97000;    -0.19553;1.00000
 380.122;   36.08000;    -0.19626;1.00000
 381.205;   36.19000;    -0.19699;1.00000
 382.304;   36.30000;    -0.19772;1.00000
 383.369;   36.41000;    -0.19841;1.00000
 384.477;   36.52000;    -0.19913;1.00000
 385.548;   36.63000;    -0.19977;1.00000
 386.642;   36.74000;    -0.20044;1.00000
 387.713;   36.85000;    -0.20108;1.00000
 388.811;   36.96000;    -0.20173;1.00000
 389.907;   37.07000;    -0.20242;1.00000
 390.988;   37.18000;    -0.20299;1.00000
 392.086;   37.29000;    -0.20364;1.00000
 393.158;   37.40000;    -0.20430;1.00000
 394.263;   37.51000;    -0.20492;1.00000
 395.346;   37.62000;    -0.20554;1.00000
 396.445;   37.73000;    -0.20611;1.00000
 397.516;   37.84000;    -0.20668;1.00000
 398.613;   37.95000;    -0.20724;1.00000
 399.696;   38.06000;    -0.20779;1.00000
 400.785;   38.17000;    -0.20832;1.00000
 401.876;   38.28000;    -0.20886;1.00000
 402.959;   38.39000;    -0.20936;1.00000
 404.051;   38.50000;    -0.20992;1.00000
 405.129;   38.61000;    -0.21042;1.00000
 406.229;   38.72000;    -0.21094;1.00000
 407.325;   38.83000;    -0.21142;1.00000
 408.413;   38.94000;    -0.21202;1.00000
 409.488;   39.05000;    -0.21247;1.00000
 410.588;   39.16000;    -0.21296;1.00000
 411.675;   39.27000;    -0.21343;1.00000
 412.768;   39.38000;    -0.21390;1.00000
 413.856;   39.49000;    -0.21434;1.00000
 414.95;   39.60000;    -0.21481;1.00000
 416.029;   39.71000;    -0.21524;1.00000
 417.117;   39.82000;    -0.21570;1.00000
 418.222;   39.93000;    -0.21610;1.00000
 419.296;   40.04000;    -0.21656;1.00000
 420.398;   40.15000;    -0.21697;1.00000
 421.482;   40.26000;    -0.21737;1.00000
 422.57;   40.37000;    -0.21778;1.00000
 423.672;   40.48000;    -0.21818;1.00000
 424.752;   40.59000;    -0.21856;1.00000
 425.852;   40.70000;    -0.21897;1.00000
 426.938;   40.81000;    -0.21930;1.00000
 428.034;   40.92000;    -0.21964;1.00000
 429.129;   41.03000;    -0.21999;1.00000
 430.216;   41.14000;    -0.22035;1.00000
 431.315;   41.25000;    -0.22073;1.00000
 432.405;   41.36000;    -0.22103;1.00000
 433.494;   41.47000;    -0.22137;1.00000
 434.586;   41.58000;    -0.22163;1.00000
 435.667;   41.69000;    -0.22196;1.00000
 436.767;   41.80000;    -0.22224;1.00000
 437.858;   41.91000;    -0.22252;1.00000
 438.95;   42.02000;    -0.22283;1.00000
 440.039;   42.13000;    -0.22309;1.00000
 441.132;   42.24000;    -0.22336;1.00000
 442.22;   42.35000;    -0.22367;1.00000
 443.315;   42.46000;    -0.22391;1.00000
 444.405;   42.57000;    -0.22414;1.00000
 445.499;   42.68000;    -0.22440;1.00000
 446.598;   42.79000;    -0.22462;1.00000
 447.686;   42.90000;    -0.22486;1.00000
 448.776;   43.01000;    -0.22509;1.00000
 449.879;   43.12000;    -0.22528;1.00000
 450.965;   43.23000;    -0.22549;1.00000
 452.062;   43.34000;    -0.22563;1.00000
 453.156;   43.45000;    -0.22584;1.00000
 454.235;   43.56000;    -0.22604;1.00000
 455.335;   43.67000;    -0.22616;1.00000
 456.423;   43.78000;    -0.22634;1.00000
 457.507;   43.89000;    -0.22654;1.00000
 458.604;   44.00000;    -0.22664;1.00000
 459.699;   44.11000;    -0.22677;1.00000
 460.79;   44.22000;    -0.22689;1.00000
 461.877;   44.33000;    -0.22703;1.00000
 462.969;   44.44000;    -0.22713;1.00000
 464.069;   44.55000;    -0.22718;1.00000
 465.16;   44.66000;    -0.22725;1.00000
 466.247;   44.77000;    -0.22735;1.00000
 467.336;   44.88000;    -0.22744;1.00000
 468.434;   44.99000;    -0.22749;1.00000
 469.536;   45.10000;    -0.22754;1.00000
 470.624;   45.21000;    -0.22755;1.00000
 471.716;   45.32000;    -0.22753;1.00000
 472.802;   45.43000;    -0.22756;1.00000
 473.902;   45.54000;    -0.22756;1.00000
 474.995;   45.65000;    -0.22754;1.00000
 476.077;   45.76000;    -0.22751;1.00000
 477.181;   45.87000;    -0.22746;1.00000
 478.276;   45.98000;    -0.22742;1.00000
 479.371;   46.09000;    -0.22736;1.00000
 480.466;   46.20000;    -0.22727;1.00000
 481.557;   46.31000;    -0.22721;1.00000
 482.649;   46.42000;    -0.22712;1.00000
 483.739;   46.53000;    -0.22698;1.00000
 484.833;   46.64000;    -0.22687;1.00000
 485.917;   46.75000;    -0.22671;1.00000
 487.024;   46.86000;    -0.22658;1.00000
 488.121;   46.97000;    -0.22641;1.00000
 489.215;   47.08000;    -0.22622;1.00000
 490.306;   47.19000;    -0.22604;1.00000
 491.404;   47.30000;    -0.22581;1.00000
 492.497;   47.41000;    -0.22556;1.00000
 493.594;   47.52000;    -0.22533;1.00000
 494.688;   47.63000;    -0.22509;1.00000
 495.777;   47.74000;    -0.22486;1.00000
 496.868;   47.85000;    -0.22456;1.00000
 497.965;   47.96000;    -0.22429;1.00000
 499.062;   48.07000;    -0.22399;1.00000
 500.155;   48.18000;    -0.22369;1.00000
 501.245;   48.29000;    -0.22332;1.00000
 502.348;   48.40000;    -0.22301;1.00000
 503.447;   48.51000;    -0.22266;1.00000
 504.544;   48.62000;    -0.22228;1.00000
 505.634;   48.73000;    -0.22187;1.00000
 506.723;   48.84000;    -0.22147;1.00000
 507.81;   48.95000;    -0.22103;1.00000
 508.915;   49.06000;    -0.22061;1.00000
 510;   49.17000;    -0.22029;1.00000
 511.102;   49.28000;    -0.21984;1.00000
 512.203;   49.39000;    -0.21934;1.00000
 513.304;   49.50000;    -0.21884;1.00000
 514.391;   49.61000;    -0.21832;1.00000
 515.484;   49.72000;    -0.21781;1.00000
 516.581;   49.83000;    -0.21729;1.00000
 517.667;   49.94000;    -0.21676;1.00000
 518.768;   50.05000;    -0.21623;1.00000
 519.86;   50.16000;    -0.21566;1.00000
 520.958;   50.27000;    -0.21508;1.00000
 522.056;   50.38000;    -0.21450;1.00000
 523.148;   50.49000;    -0.21395;1.00000
 524.238;   50.60000;    -0.21338;1.00000
 525.339;   50.71000;    -0.21275;1.00000
 526.431;   50.82000;    -0.21209;1.00000
 527.524;   50.93000;    -0.21148;1.00000
 528.621;   51.04000;    -0.21083;1.00000
 529.725;   51.15000;    -0.21018;1.00000
 530.808;   51.26000;    -0.20957;1.00000
 531.906;   51.37000;    -0.20892;1.00000
 533.009;   51.48000;    -0.20830;1.00000
 534.101;   51.59000;    -0.20759;1.00000
 535.202;   51.70000;    -0.20696;1.00000
 536.292;   51.81000;    -0.20626;1.00000
 537.401;   51.92000;    -0.20562;1.00000
 538.493;   52.03000;    -0.20492;1.00000
 539.59;   52.14000;    -0.20428;1.00000
 540.684;   52.25000;    -0.20354;1.00000
 541.773;   52.36000;    -0.20292;1.00000
 542.881;   52.47000;    -0.20223;1.00000
 543.97;   52.58000;    -0.20151;1.00000
 545.058;   52.69000;    -0.20084;1.00000
 546.162;   52.80000;    -0.20022;1.00000
 547.25;   52.91000;    -0.19953;1.00000
 548.354;   53.02000;    -0.19888;1.00000
 549.457;   53.13000;    -0.19823;1.00000
 550.542;   53.24000;    -0.19762;1.00000
 551.644;   53.35000;    -0.19696;1.00000
 552.741;   53.46000;    -0.19631;1.00000
 553.832;   53.57000;    -0.19569;1.00000
 554.942;   53.68000;    -0.19506;1.00000
 556.026;   53.79000;    -0.19441;1.00000
 557.129;   53.90000;    -0.19386;1.00000
 558.223;   54.01000;    -0.19327;1.00000
 559.323;   54.12000;    -0.19259;1.00000
 560.428;   54.23000;    -0.19199;1.00000
 561.515;   54.34000;    -0.19143;1.00000
 562.612;   54.45000;    -0.19086;1.00000
 563.718;   54.56000;    -0.19028;1.00000
 564.81;   54.67000;    -0.18970;1.00000
 565.909;   54.78000;    -0.18918;1.00000
 567.003;   54.89000;    -0.18870;1.00000
 568.102;   55.00000;    -0.18818;1.00000
 569.213;   55.11000;    -0.18758;1.00000
 570.305;   55.22000;    -0.18705;1.00000
 571.393;   55.33000;    -0.18657;1.00000
 572.493;   55.44000;    -0.18607;1.00000
 573.598;   55.55000;    -0.18566;1.00000
 574.693;   55.66000;    -0.18522;1.00000
 575.789;   55.77000;    -0.18477;1.00000
 576.887;   55.88000;    -0.18427;1.00000
 577.984;   55.99000;    -0.18384;1.00000
 579.086;   56.10000;    -0.18342;1.00000
 580.171;   56.21000;    -0.18301;1.00000
 581.282;   56.32000;    -0.18263;1.00000
 582.372;   56.43000;    -0.18224;1.00000
 583.462;   56.54000;    -0.18181;1.00000
 584.579;   56.65000;    -0.18139;1.00000
 585.667;   56.76000;    -0.18104;1.00000
 586.765;   56.87000;    -0.18066;1.00000
 587.865;   56.98000;    -0.18039;1.00000
 588.97;   57.09000;    -0.17999;1.00000
 590.073;   57.20000;    -0.17965;1.00000
 591.164;   57.31000;    -0.17928;1.00000
 592.265;   57.42000;    -0.17895;1.00000
 593.364;   57.53000;    -0.17867;1.00000
 594.458;   57.64000;    -0.17836;1.00000
 595.559;   57.75000;    -0.17808;1.00000
 596.662;   57.86000;    -0.17779;1.00000
 597.756;   57.97000;    -0.17748;1.00000
 598.857;   58.08000;    -0.17721;1.00000
 599.958;   58.19000;    -0.17695;1.00000
 601.061;   58.30000;    -0.17669;1.00000
 602.165;   58.41000;    -0.17644;1.00000
 603.26;   58.52000;    -0.17619;1.00000
 604.361;   58.63000;    -0.17603;1.00000
 605.462;   58.74000;    -0.17573;1.00000
 606.558;   58.85000;    -0.17552;1.00000
 607.662;   58.96000;    -0.17528;1.00000
 608.765;   59.07000;    -0.17512;1.00000
 609.869;   59.18000;    -0.17483;1.00000
 610.966;   59.29000;    -0.17469;1.00000
 612.06;   59.40000;    -0.17442;1.00000
 613.173;   59.51000;    -0.17424;1.00000
 614.261;   59.62000;    -0.17402;1.00000
 615.358;   59.73000;    -0.17378;1.00000
 616.463;   59.84000;    -0.17356;1.00000
 617.559;   59.95000;    -0.17345;1.00000
 618.666;   60.06000;    -0.17313;1.00000
 619.763;   60.17000;    -0.17296;1.00000
 620.861;   60.28000;    -0.17280;1.00000
 621.954;   60.39000;    -0.17268;1.00000
 623.055;   60.50000;    -0.17245;1.00000
 624.149;   60.61000;    -0.17227;1.00000
 625.249;   60.72000;    -0.17218;1.00000
 626.354;   60.83000;    -0.17197;1.00000
 627.456;   60.94000;    -0.17180;1.00000
 628.556;   61.05000;    -0.17162;1.00000
 629.658;   61.16000;    -0.17147;1.00000
 630.744;   61.27000;    -0.17137;1.00000
 631.847;   61.38000;    -0.17121;1.00000
 632.951;   61.49000;    -0.17110;1.00000
 634.056;   61.60000;    -0.17105;1.00000
 635.151;   61.71000;    -0.17085;1.00000
 636.258;   61.82000;    -0.17071;1.00000
 637.344;   61.93000;    -0.17056;1.00000
 638.449;   62.04000;    -0.17042;1.00000
 639.551;   62.15000;    -0.17031;1.00000
 640.652;   62.26000;    -0.17012;1.00000
 641.753;   62.37000;    -0.17002;1.00000
 642.85;   62.48000;    -0.16998;1.00000
 643.949;   62.59000;    -0.16973;1.00000
 645.052;   62.70000;    -0.16958;1.00000
 646.155;   62.81000;    -0.16947;1.00000
 647.253;   62.92000;    -0.16945;1.00000
 648.359;   63.03000;    -0.16928;1.00000
 649.446;   63.14000;    -0.16920;1.00000
 650.564;   63.25000;    -0.16907;1.00000
 651.649;   63.36000;    -0.16899;1.00000
 652.762;   63.47000;    -0.16889;1.00000
 653.853;   63.58000;    -0.16876;1.00000
 654.956;   63.69000;    -0.16872;1.00000
 656.064;   63.80000;    -0.16857;1.00000
 657.161;   63.91000;    -0.16844;1.00000
 658.248;   64.02000;    -0.16838;1.00000
 659.359;   64.13000;    -0.16825;1.00000
 660.457;   64.24000;    -0.16819;1.00000
 661.544;   64.35000;    -0.16807;1.00000
 662.652;   64.46000;    -0.16797;1.00000
 663.763;   64.57000;    -0.16792;1.00000
 664.858;   64.68000;    -0.16783;1.00000
 665.955;   64.79000;    -0.16771;1.00000
 667.054;   64.90000;    -0.16760;1.00000
 668.153;   65.01000;    -0.16753;1.00000
 669.256;   65.12000;    -0.16743;1.00000
 670.358;   65.23000;    -0.16732;1.00000
 671.453;   65.34000;    -0.16724;1.00000
 672.556;   65.45000;    -0.16715;1.00000
 673.664;   65.56000;    -0.16701;1.00000
 674.759;   65.67000;    -0.16698;1.00000
 675.861;   65.78000;    -0.16686;1.00000
 676.966;   65.89000;    -0.16681;1.00000
 678.059;   66.00000;    -0.16668;1.00000
 679.153;   66.11000;    -0.16664;1.00000
 680.264;   66.22000;    -0.16653;1.00000
 681.36;   66.33000;    -0.16638;1.00000
 682.463;   66.44000;    -0.16634;1.00000
 683.573;   66.55000;    -0.16623;1.00000
 684.662;   66.66000;    -0.16619;1.00000
 685.754;   66.77000;    -0.16610;1.00000
 686.864;   66.88000;    -0.16615;1.00000
 687.959;   66.99000;    -0.16598;1.00000
 689.066;   67.10000;    -0.16583;1.00000
 690.159;   67.21000;    -0.16577;1.00000
 691.268;   67.32000;    -0.16566;1.00000
 692.365;   67.43000;    -0.16560;1.00000
 693.461;   67.54000;    -0.16547;1.00000
 694.57;   67.65000;    -0.16537;1.00000
 695.665;   67.76000;    -0.16532;1.00000
 696.763;   67.87000;    -0.16521;1.00000
 697.867;   67.98000;    -0.16516;1.00000
 698.971;   68.09000;    -0.16506;1.00000
 700.071;   68.20000;    -0.16497;1.00000
 701.173;   68.31000;    -0.16488;1.00000
 702.276;   68.42000;    -0.16479;1.00000
 703.364;   68.53000;    -0.16468;1.00000
 704.461;   68.64000;    -0.16458;1.00000
 705.568;   68.75000;    -0.16451;1.00000
 706.68;   68.86000;    -0.16449;1.00000
 707.772;   68.97000;    -0.16435;1.00000
 708.877;   69.08000;    -0.16430;1.00000
 709.978;   69.19000;    -0.16422;1.00000
 711.067;   69.30000;    -0.16409;1.00000
 712.182;   69.41000;    -0.16401;1.00000
 713.282;   69.52000;    -0.16391;1.00000
 714.38;   69.63000;    -0.16381;1.00000
 715.488;   69.74000;    -0.16394;1.00000
 716.593;   69.85000;    -0.16371;1.00000
 717.692;   69.96000;    -0.16362;1.00000
 718.789;   70.07000;    -0.16349;1.00000
 719.906;   70.18000;    -0.16338;1.00000
 720.989;   70.29000;    -0.16322;1.00000
 722.097;   70.40000;    -0.16316;1.00000
 723.195;   70.51000;    -0.16313;1.00000
 724.307;   70.62000;    -0.16307;1.00000
 725.407;   70.73000;    -0.16293;1.00000
 726.497;   70.84000;    -0.16286;1.00000
 727.604;   70.95000;    -0.16278;1.00000
 728.699;   71.06000;    -0.16270;1.00000
 729.786;   71.17000;    -0.16256;1.00000
 730.901;   71.28000;    -0.16248;1.00000
 732.004;   71.39000;    -0.16241;1.00000
 733.106;   71.50000;    -0.16227;1.00000
 734.203;   71.61000;    -0.16205;1.00000
 735.301;   71.72000;    -0.16202;1.00000
 736.405;   71.83000;    -0.16206;1.00000
 737.504;   71.94000;    -0.16192;1.00000
 738.61;   72.05000;    -0.16180;1.00000
 739.692;   72.16000;    -0.16162;1.00000
 740.801;   72.27000;    -0.16164;1.00000
 741.898;   72.38000;    -0.16157;1.00000
 743.003;   72.49000;    -0.16139;1.00000
 744.117;   72.60000;    -0.16117;1.00000
 745.211;   72.71000;    -0.16112;1.00000
 746.307;   72.82000;    -0.16098;1.00000
 747.417;   72.93000;    -0.16104;1.00000
 748.519;   73.04000;    -0.16085;1.00000
 749.611;   73.15000;    -0.16074;1.00000
 750.719;   73.26000;    -0.16083;1.00000
 751.816;   73.37000;    -0.16051;1.00000
 752.922;   73.48000;    -0.16044;1.00000
 754.022;   73.59000;    -0.16034;1.00000
 755.123;   73.70000;    -0.16024;1.00000
 756.215;   73.81000;    -0.16006;1.00000
 757.32;   73.92000;    -0.15997;1.00000
 758.421;   74.03000;    -0.15985;1.00000
 759.517;   74.14000;    -0.15975;1.00000
 760.625;   74.25000;    -0.15968;1.00000
 761.738;   74.36000;    -0.15955;1.00000
 762.832;   74.47000;    -0.15950;1.00000
 763.925;   74.58000;    -0.15939;1.00000
 765.029;   74.69000;    -0.15924;1.00000
 766.135;   74.80000;    -0.15912;1.00000
 767.244;   74.91000;    -0.15898;1.00000
 768.329;   75.02000;    -0.15888;1.00000
 769.44;   75.13000;    -0.15875;1.00000
 770.54;   75.24000;    -0.15868;1.00000
 771.642;   75.35000;    -0.15865;1.00000
 772.736;   75.46000;    -0.15850;1.00000
 773.839;   75.57000;    -0.15841;1.00000
 774.943;   75.68000;    -0.15827;1.00000
 776.041;   75.79000;    -0.15816;1.00000
 777.145;   75.90000;    -0.15804;1.00000
 778.243;   76.01000;    -0.15790;1.00000
 779.335;   76.12000;    -0.15779;1.00000
 780.438;   76.23000;    -0.15776;1.00000
 781.545;   76.34000;    -0.15761;1.00000
 782.634;   76.45000;    -0.15750;1.00000
 783.74;   76.56000;    -0.15737;1.00000
 784.84;   76.67000;    -0.15724;1.00000
 785.941;   76.78000;    -0.15713;1.00000
 787.051;   76.89000;    -0.15706;1.00000
 788.146;   77.00000;    -0.15692;1.00000
 789.247;   77.11000;    -0.15680;1.00000
 790.345;   77.22000;    -0.15668;1.00000
 791.448;   77.33000;    -0.15651;1.00000
 792.547;   77.44000;    -0.15650;1.00000
 793.656;   77.55000;    -0.15628;1.00000
 794.755;   77.66000;    -0.15614;1.00000
 795.86;   77.77000;    -0.15603;1.00000
 796.964;   77.88000;    -0.15597;1.00000
 798.074;   77.99000;    -0.15578;1.00000
 799.167;   78.10000;    -0.15564;1.00000
 800.27;   78.21000;    -0.15552;1.00000
 801.365;   78.32000;    -0.15537;1.00000
 802.459;   78.43000;    -0.15525;1.00000
 803.563;   78.54000;    -0.15517;1.00000
 804.675;   78.65000;    -0.15506;1.00000
 805.777;   78.76000;    -0.15496;1.00000
 806.873;   78.87000;    -0.15485;1.00000
 807.976;   78.98000;    -0.15471;1.00000
 809.085;   79.09000;    -0.15461;1.00000
 810.181;   79.20000;    -0.15457;1.00000
 811.285;   79.31000;    -0.15446;1.00000
 812.384;   79.42000;    -0.15430;1.00000
 813.488;   79.53000;    -0.15419;1.00000
 814.579;   79.64000;    -0.15405;1.00000
 815.682;   79.75000;    -0.15393;1.00000
 816.787;   79.86000;    -0.15387;1.00000
 817.882;   79.97000;    -0.15372;1.00000
 818.987;   80.08000;    -0.15364;1.00000
 820.084;   80.19000;    -0.15364;1.00000
 821.189;   80.30000;    -0.15352;1.00000
 822.279;   80.41000;    -0.15344;1.00000
 823.393;   80.52000;    -0.15337;1.00000
 824.497;   80.63000;    -0.15323;1.00000
 825.588;   80.74000;    -0.15318;1.00000
 826.697;   80.85000;    -0.15312;1.00000
 827.795;   80.96000;    -0.15315;1.00000
 828.898;   81.07000;    -0.15300;1.00000
 830;   81.18000;    -0.15290;1.00000
 831.099;   81.29000;    -0.15288;1.00000
 832.206;   81.40000;    -0.15283;1.00000
 833.3;   81.51000;    -0.15280;1.00000
 834.404;   81.62000;    -0.15279;1.00000
 835.499;   81.73000;    -0.15271;1.00000
 836.608;   81.84000;    -0.15268;1.00000
 837.702;   81.95000;    -0.15267;1.00000
 838.807;   82.06000;    -0.15264;1.00000
 839.923;   82.17000;    -0.15259;1.00000
 841.016;   82.28000;    -0.15256;1.00000
 842.119;   82.39000;    -0.15260;1.00000
 843.221;   82.50000;    -0.15260;1.00000
 844.319;   82.61000;    -0.15258;1.00000
 845.432;   82.72000;    -0.15262;1.00000
 846.531;   82.83000;    -0.15266;1.00000
 847.63;   82.94000;    -0.15267;1.00000
 848.745;   83.05000;    -0.15278;1.00000
 849.835;   83.16000;    -0.15280;1.00000
 850.944;   83.27000;    -0.15284;1.00000
 852.045;   83.38000;    -0.15295;1.00000
 853.146;   83.49000;    -0.15309;1.00000
 854.255;   83.60000;    -0.15322;1.00000
 855.353;   83.71000;    -0.15333;1.00000
 856.455;   83.82000;    -0.15346;1.00000
 857.557;   83.93000;    -0.15366;1.00000
 858.66;   84.04000;    -0.15379;1.00000
 859.769;   84.15000;    -0.15400;1.00000
 860.873;   84.26000;    -0.15414;1.00000
 861.975;   84.37000;    -0.15437;1.00000
 863.078;   84.48000;    -0.15460;1.00000
 864.178;   84.59000;    -0.15481;1.00000
 865.281;   84.70000;    -0.15512;1.00000
 866.386;   84.81000;    -0.15539;1.00000
 867.478;   84.92000;    -0.15569;1.00000
 868.586;   85.03000;    -0.15601;1.00000
 869.688;   85.14000;    -0.15636;1.00000
 870.787;   85.25000;    -0.15672;1.00000
 871.897;   85.36000;    -0.15707;1.00000
 872.995;   85.47000;    -0.15749;1.00000
 874.109;   85.58000;    -0.15790;1.00000
 875.213;   85.69000;    -0.15841;1.00000
 876.305;   85.80000;    -0.15883;1.00000
 877.409;   85.91000;    -0.15936;1.00000
 878.504;   86.02000;    -0.15990;1.00000
 879.603;   86.13000;    -0.16045;1.00000
 880.713;   86.24000;    -0.16100;1.00000
 881.812;   86.35000;    -0.16152;1.00000
 882.907;   86.46000;    -0.16214;1.00000
 884.015;   86.57000;    -0.16272;1.00000
 885.121;   86.68000;    -0.16332;1.00000
 886.224;   86.79000;    -0.16387;1.00000
 887.327;   86.90000;    -0.16442;1.00000
 888.436;   87.01000;    -0.16497;1.00000
 889.533;   87.12000;    -0.16551;1.00000
 890.625;   87.23000;    -0.16590;1.00000
 891.735;   87.34000;    -0.16637;1.00000
 892.835;   87.45000;    -0.16670;1.00000
 893.944;   87.56000;    -0.16697;1.00000
 895.039;   87.67000;    -0.16720;1.00000
 896.134;   87.78000;    -0.16730;1.00000
 897.245;   87.89000;    -0.16733;1.00000
 898.354;   88.00000;    -0.16729;1.00000
 899.448;   88.11000;    -0.16720;1.00000
 900.562;   88.22000;    -0.16702;1.00000
 901.652;   88.33000;    -0.16678;1.00000
 902.758;   88.44000;    -0.16642;1.00000
 903.853;   88.55000;    -0.16614;1.00000
 904.958;   88.66000;    -0.16579;1.00000
 906.056;   88.77000;    -0.16543;1.00000
 907.152;   88.88000;    -0.16518;1.00000
 908.262;   88.99000;    -0.16502;1.00000
 909.359;   89.10000;    -0.16492;1.00000
 910.465;   89.21000;    -0.16502;1.00000
 911.564;   89.32000;    -0.16529;1.00000
 912.66;   89.43000;    -0.16577;1.00000
 913.772;   89.54000;    -0.16651;1.00000
 914.874;   89.65000;    -0.16744;1.00000
 915.966;   89.76000;    -0.16864;1.00000
 917.065;   89.87000;    -0.17005;1.00000
 918.174;   89.98000;    -0.17165;1.00000
 919.275;   90.09000;    -0.17342;1.00000
 920.393;   90.20000;    -0.17539;1.00000
 921.489;   90.31000;    -0.17735;1.00000
 922.593;   90.42000;    -0.17934;1.00000
 923.7;   90.53000;    -0.18123;1.00000
 924.806;   90.64000;    -0.18296;1.00000
 925.914;   90.75000;    -0.18441;1.00000
 927.023;   90.86000;    -0.18554;1.00000
 928.121;   90.97000;    -0.18634;1.00000
 929.23;   91.08000;    -0.18666;1.00000
 930.325;   91.19000;    -0.18666;1.00000
 931.435;   91.30000;    -0.18624;1.00000
 932.538;   91.41000;    -0.18538;1.00000
 933.643;   91.52000;    -0.18420;1.00000
 934.745;   91.63000;    -0.18259;1.00000
 935.856;   91.74000;    -0.18077;1.00000
 936.952;   91.85000;    -0.17864;1.00000
 938.055;   91.96000;    -0.17638;1.00000
 939.161;   92.07000;    -0.17389;1.00000
 940.257;   92.18000;    -0.17128;1.00000
 941.362;   92.29000;    -0.16861;1.00000
 942.454;   92.40000;    -0.16582;1.00000
 943.558;   92.51000;    -0.16307;1.00000
 944.645;   92.62000;    -0.16026;1.00000
 945.744;   92.73000;    -0.15749;1.00000
 946.831;   92.84000;    -0.15469;1.00000
 947.943;   92.95000;    -0.15203;1.00000
 949.033;   93.06000;    -0.14940;1.00000
 950.135;   93.17000;    -0.14683;1.00000
 951.229;   93.28000;    -0.14441;1.00000
 952.316;   93.39000;    -0.14207;1.00000
 953.418;   93.50000;    -0.13980;1.00000
 954.519;   93.61000;    -0.13773;1.00000
 955.609;   93.72000;    -0.13571;1.00000
 956.707;   93.83000;    -0.13380;1.00000
 957.807;   93.94000;    -0.13205;1.00000
 958.91;   94.05000;    -0.13038;1.00000
 960.003;   94.16000;    -0.12890;1.00000
 961.111;   94.27000;    -0.12747;1.00000
 962.218;   94.38000;    -0.12616;1.00000
 963.311;   94.49000;    -0.12496;1.00000
 964.412;   94.60000;    -0.12391;1.00000
 965.516;   94.71000;    -0.12290;1.00000
 966.612;   94.82000;    -0.12201;1.00000
 967.719;   94.93000;    -0.12123;1.00000
 968.825;   95.04000;    -0.12052;1.00000
 969.933;   95.15000;    -0.11989;1.00000
 971.019;   95.26000;    -0.11930;1.00000
 972.13;   95.37000;    -0.11881;1.00000
 973.231;   95.48000;    -0.11841;1.00000
 974.336;   95.59000;    -0.11806;1.00000
 975.439;   95.70000;    -0.11774;1.00000
 976.548;   95.81000;    -0.11748;1.00000
 977.645;   95.92000;    -0.11729;1.00000
 978.751;   96.03000;    -0.11713;1.00000
 979.856;   96.14000;    -0.11698;1.00000
 980.955;   96.25000;    -0.11689;1.00000
 982.057;   96.36000;    -0.11682;1.00000
 983.161;   96.47000;    -0.11682;1.00000
 984.269;   96.58000;    -0.11679;1.00000
 985.367;   96.69000;    -0.11679;1.00000
 986.479;   96.80000;    -0.11690;1.00000
 987.585;   96.91000;    -0.11697;1.00000
 988.687;   97.02000;    -0.11709;1.00000
 989.789;   97.13000;    -0.11720;1.00000
 990.899;   97.24000;    -0.11733;1.00000
 992.009;   97.35000;    -0.11744;1.00000
 993.108;   97.46000;    -0.11761;1.00000
 994.213;   97.57000;    -0.11781;1.00000
 995.325;   97.68000;    -0.11792;1.00000
 996.419;   97.79000;    -0.11812;1.00000
 997.536;   97.90000;    -0.11835;1.00000
 998.635;   98.01000;    -0.11851;1.00000
 999.741;   98.12000;    -0.11873;1.00000
1000.84;   98.23000;    -0.11895;1.00000
1001.94;   98.34000;    -0.11915;1.00000
1003.05;   98.45000;    -0.11943;1.00000
1004.16;   98.56000;    -0.11966;1.00000
1005.25;   98.67000;    -0.11993;1.00000
1006.36;   98.78000;    -0.12015;1.00000
1007.47;   98.89000;    -0.12049;1.00000
1008.58;   99.00000;    -0.12072;1.00000
1009.68;   99.11000;    -0.12099;1.00000
1010.79;   99.22000;    -0.12131;1.00000
1011.89;   99.33000;    -0.12155;1.00000
1012.99;   99.44000;    -0.12183;1.00000
1014.1;   99.55000;    -0.12213;1.00000
1015.19;   99.66000;    -0.12236;1.00000
1016.3;   99.77000;    -0.12260;1.00000
1017.41;   99.88000;    -0.12288;1.00000
1018.5;   99.99000;    -0.12312;1.00000
1019.62;  100.1;    -0.12340;1.00000
1020.72;  100.21;    -0.12369;1.00000
1021.84;  100.32;    -0.12401;1.00000
1022.92;  100.43;    -0.12432;1.00000
1024.03;  100.54;    -0.12466;1.00000
1025.13;  100.65;    -0.12498;1.00000
1026.23;  100.76;    -0.12531;1.00000
1027.33;  100.87;    -0.12564;1.00000
1028.44;  100.98;    -0.12596;1.00000
1029.54;  101.09;    -0.12630;1.00000
1030.65;  101.2;    -0.12655;1.00000
1031.76;  101.31;    -0.12690;1.00000
1032.86;  101.42;    -0.12720;1.00000
1033.96;  101.53;    -0.12749;1.00000
1035.06;  101.64;    -0.12783;1.00000
1036.17;  101.75;    -0.12817;1.00000
1037.27;  101.86;    -0.12848;1.00000
1038.37;  101.97;    -0.12877;1.00000
1039.47;  102.08;    -0.12908;1.00000
1040.57;  102.19;    -0.12943;1.00000
1041.69;  102.3;    -0.12975;1.00000
1042.79;  102.41;    -0.13011;1.00000
1043.89;  102.52;    -0.13041;1.00000
1044.99;  102.63;    -0.13071;1.00000
1046.09;  102.74;    -0.13111;1.00000
1047.2;  102.85;    -0.13143;1.00000
1048.3;  102.96;    -0.13177;1.00000
1049.4;  103.07;    -0.13212;1.00000
1050.52;  103.18;    -0.13251;1.00000
1051.61;  103.29;    -0.13278;1.00000
1052.71;  103.4;    -0.13312;1.00000
1053.81;  103.51;    -0.13351;1.00000
1054.92;  103.62;    -0.13386;1.00000
1056.02;  103.73;    -0.13422;1.00000
1057.13;  103.84;    -0.13456;1.00000
1058.22;  103.95;    -0.13493;1.00000
1059.31;  104.06;    -0.13533;1.00000
1060.43;  104.17;    -0.13567;1.00000
1061.53;  104.28;    -0.13601;1.00000
1062.63;  104.39;    -0.13636;1.00000
1063.73;  104.5;    -0.13672;1.00000
1064.83;  104.61;    -0.13707;1.00000
1065.94;  104.72;    -0.13741;1.00000
1067.03;  104.83;    -0.13779;1.00000
1068.14;  104.94;    -0.13815;1.00000
1069.24;  105.05;    -0.13856;1.00000
1070.35;  105.16;    -0.13894;1.00000
1071.45;  105.27;    -0.13931;1.00000
1072.56;  105.38;    -0.13965;1.00000
1073.67;  105.49;    -0.14004;1.00000
1074.77;  105.6;    -0.14046;1.00000
1075.87;  105.71;    -0.14078;1.00000
1076.97;  105.82;    -0.14117;1.00000
1078.08;  105.93;    -0.14156;1.00000
1079.18;  106.04;    -0.14196;1.00000
1080.29;  106.15;    -0.14235;1.00000
1081.39;  106.26;    -0.14281;1.00000
1082.5;  106.37;    -0.14323;1.00000
1083.6;  106.48;    -0.14368;1.00000
1084.69;  106.59;    -0.14411;1.00000
1085.79;  106.7;    -0.14453;1.00000
1086.9;  106.81;    -0.14496;1.00000
1088;  106.92;    -0.14540;1.00000
1089.11;  107.03;    -0.14584;1.00000
1090.21;  107.14;    -0.14631;1.00000
1091.31;  107.25;    -0.14676;1.00000
1092.41;  107.36;    -0.14723;1.00000
1093.52;  107.47;    -0.14769;1.00000
1094.63;  107.58;    -0.14814;1.00000
1095.73;  107.69;    -0.14859;1.00000
1096.82;  107.8;    -0.14907;1.00000
1097.92;  107.91;    -0.14956;1.00000
1099.04;  108.02;    -0.15011;1.00000
1100.13;  108.13;    -0.15066;1.00000
1101.23;  108.24;    -0.15119;1.00000
1102.34;  108.35;    -0.15168;1.00000
1103.44;  108.46;    -0.15217;1.00000
1104.54;  108.57;    -0.15283;1.00000
1105.65;  108.68;    -0.15332;1.00000
1106.74;  108.79;    -0.15385;1.00000
1107.86;  108.9;    -0.15451;1.00000
1108.96;  109.01;    -0.15507;1.00000
1110.06;  109.12;    -0.15567;1.00000
1111.16;  109.23;    -0.15624;1.00000
1112.27;  109.34;    -0.15687;1.00000
1113.37;  109.45;    -0.15756;1.00000
1114.48;  109.56;    -0.15815;1.00000
1115.58;  109.67;    -0.15883;1.00000
1116.68;  109.78;    -0.15942;1.00000
1117.79;  109.89;    -0.16011;1.00000
1118.9;  110;    -0.16075;1.00000
1120;  110.11;    -0.16140;1.00000
1121.1;  110.22;    -0.16201;1.00000
1122.21;  110.33;    -0.16262;1.00000
1123.31;  110.44;    -0.16328;1.00000
1124.41;  110.55;    -0.16390;1.00000
1125.52;  110.66;    -0.16445;1.00000
1126.61;  110.77;    -0.16507;1.00000
1127.71;  110.88;    -0.16573;1.00000
1128.81;  110.99;    -0.16629;1.00000
1129.92;  111.1;    -0.16687;1.00000
1131.02;  111.21;    -0.16743;1.00000
1132.12;  111.32;    -0.16803;1.00000
1133.22;  111.43;    -0.16857;1.00000
1134.33;  111.54;    -0.16918;1.00000
1135.44;  111.65;    -0.16975;1.00000
1136.54;  111.76;    -0.17030;1.00000
1137.64;  111.87;    -0.17083;1.00000
1138.75;  111.98;    -0.17139;1.00000
1139.85;  112.09;    -0.17192;1.00000
1140.95;  112.2;    -0.17243;1.00000
1142.05;  112.31;    -0.17290;1.00000
1143.15;  112.42;    -0.17338;1.00000
1144.25;  112.53;    -0.17386;1.00000
1145.36;  112.64;    -0.17431;1.00000
1146.46;  112.75;    -0.17473;1.00000
1147.56;  112.86;    -0.17520;1.00000
1148.67;  112.97;    -0.17559;1.00000
1149.76;  113.08;    -0.17601;1.00000
1150.87;  113.19;    -0.17641;1.00000
1151.98;  113.3;    -0.17680;1.00000
1153.08;  113.41;    -0.17717;1.00000
1154.18;  113.52;    -0.17750;1.00000
1155.28;  113.63;    -0.17785;1.00000
1156.39;  113.74;    -0.17815;1.00000
1157.49;  113.85;    -0.17843;1.00000
1158.59;  113.96;    -0.17875;1.00000
1159.69;  114.07;    -0.17903;1.00000
1160.79;  114.18;    -0.17930;1.00000
1161.9;  114.29;    -0.17950;1.00000
1163;  114.4;    -0.17978;1.00000
1164.1;  114.51;    -0.17997;1.00000
1165.21;  114.62;    -0.18024;1.00000
1166.31;  114.73;    -0.18048;1.00000
1167.41;  114.84;    -0.18069;1.00000
1168.51;  114.95;    -0.18087;1.00000
1169.62;  115.06;    -0.18111;1.00000
1170.72;  115.17;    -0.18129;1.00000
1171.82;  115.28;    -0.18148;1.00000
1172.92;  115.39;    -0.18165;1.00000
1174.02;  115.5;    -0.18186;1.00000
1175.14;  115.61;    -0.18205;1.00000
1176.24;  115.72;    -0.18219;1.00000
1177.33;  115.83;    -0.18240;1.00000
1178.44;  115.94;    -0.18250;1.00000
1179.54;  116.05;    -0.18269;1.00000
1180.63;  116.16;    -0.18277;1.00000
1181.74;  116.27;    -0.18288;1.00000
1182.84;  116.38;    -0.18304;1.00000
1183.93;  116.49;    -0.18315;1.00000
1185.04;  116.6;    -0.18324;1.00000
1186.15;  116.71;    -0.18335;1.00000
1187.24;  116.82;    -0.18346;1.00000
1188.34;  116.93;    -0.18351;1.00000
1189.44;  117.04;    -0.18361;1.00000
1190.54;  117.15;    -0.18368;1.00000
1191.65;  117.26;    -0.18378;1.00000
1192.75;  117.37;    -0.18387;1.00000
1193.86;  117.48;    -0.18400;1.00000
1194.96;  117.59;    -0.18408;1.00000
1196.07;  117.7;    -0.18417;1.00000
1197.16;  117.81;    -0.18426;1.00000
1198.26;  117.92;    -0.18433;1.00000
1199.37;  118.03;    -0.18435;1.00000
1200.46;  118.14;    -0.18440;1.00000
1201.57;  118.25;    -0.18442;1.00000
1202.66;  118.36;    -0.18454;1.00000
1203.78;  118.47;    -0.18453;1.00000
1204.88;  118.58;    -0.18459;1.00000
1205.99;  118.69;    -0.18467;1.00000
1207.08;  118.8;    -0.18471;1.00000
1208.18;  118.91;    -0.18483;1.00000
1209.28;  119.02;    -0.18491;1.00000
1210.39;  119.13;    -0.18494;1.00000
1211.49;  119.24;    -0.18505;1.00000
1212.59;  119.35;    -0.18508;1.00000
1213.71;  119.46;    -0.18511;1.00000
1214.81;  119.57;    -0.18522;1.00000
1215.91;  119.68;    -0.18523;1.00000
1217.01;  119.79;    -0.18525;1.00000
1218.11;  119.9;    -0.18526;1.00000
1219.21;  120.01;    -0.18532;1.00000
1220.32;  120.12;    -0.18536;1.00000
1221.44;  120.23;    -0.18547;1.00000
1222.54;  120.34;    -0.18555;1.00000
1223.65;  120.45;    -0.18560;1.00000
1224.75;  120.56;    -0.18560;1.00000
1225.85;  120.67;    -0.18564;1.00000
1226.95;  120.78;    -0.18569;1.00000
1228.05;  120.89;    -0.18572;1.00000
1229.15;  121;    -0.18578;1.00000
1230.25;  121.11;    -0.18588;1.00000
1231.35;  121.22;    -0.18601;1.00000
1232.44;  121.33;    -0.18608;1.00000
1233.55;  121.44;    -0.18611;1.00000
1234.64;  121.55;    -0.18617;1.00000
1235.73;  121.66;    -0.18628;1.00000
1236.85;  121.77;    -0.18632;1.00000
1237.94;  121.88;    -0.18630;1.00000
1239.05;  121.99;    -0.18637;1.00000
1240.15;  122.1;    -0.18636;1.00000
1241.25;  122.21;    -0.18644;1.00000
1242.35;  122.32;    -0.18642;1.00000
1243.46;  122.43;    -0.18651;1.00000
1244.55;  122.54;    -0.18648;1.00000
1245.67;  122.65;    -0.18651;1.00000
1246.77;  122.76;    -0.18645;1.00000
1247.86;  122.87;    -0.18644;1.00000
1248.96;  122.98;    -0.18656;1.00000
1250.08;  123.09;    -0.18654;1.00000
1251.18;  123.2;    -0.18657;1.00000
1252.29;  123.31;    -0.18657;1.00000
1253.39;  123.42;    -0.18660;1.00000
1254.5;  123.53;    -0.18653;1.00000
1255.61;  123.64;    -0.18657;1.00000
1256.71;  123.75;    -0.18654;1.00000
1257.82;  123.86;    -0.18645;1.00000
1258.93;  123.97;    -0.18636;1.00000
1260.04;  124.08;    -0.18631;1.00000
1261.14;  124.19;    -0.18620;1.00000
1262.24;  124.3;    -0.18606;1.00000
1263.34;  124.41;    -0.18587;1.00000
1264.44;  124.52;    -0.18570;1.00000
1265.56;  124.63;    -0.18554;1.00000
1266.66;  124.74;    -0.18528;1.00000
1267.76;  124.85;    -0.18506;1.00000
1268.86;  124.96;    -0.18482;1.00000
1269.95;  125.07;    -0.18462;1.00000
1271.05;  125.18;    -0.18436;1.00000
1272.16;  125.29;    -0.18418;1.00000
1273.27;  125.4;    -0.18398;1.00000
1274.36;  125.51;    -0.18386;1.00000
1275.48;  125.62;    -0.18361;1.00000
1276.57;  125.73;    -0.18334;1.00000
1277.67;  125.84;    -0.18315;1.00000
1278.78;  125.95;    -0.18292;1.00000
1279.87;  126.06;    -0.18273;1.00000
1280.97;  126.17;    -0.18240;1.00000
1282.06;  126.28;    -0.18209;1.00000
1283.17;  126.39;    -0.18184;1.00000
1284.28;  126.5;    -0.18159;1.00000
1285.37;  126.61;    -0.18135;1.00000
1286.47;  126.72;    -0.18111;1.00000
1287.57;  126.83;    -0.18085;1.00000
1288.68;  126.94;    -0.18046;1.00000
1289.78;  127.05;    -0.18007;1.00000
1290.87;  127.16;    -0.17966;1.00000
1291.97;  127.27;    -0.17916;1.00000
1293.05;  127.38;    -0.17865;1.00000
1294.16;  127.49;    -0.17801;1.00000
1295.27;  127.6;    -0.17734;1.00000
1296.35;  127.71;    -0.17661;1.00000
1297.46;  127.82;    -0.17569;1.00000
1298.57;  127.93;    -0.17471;1.00000
1299.17;  127.99;    -0.17418;1.00000