File: charts/20230801/DTA/INSATURADAS/STD 4A.txt
#FILE:                       ;DTA_Z4A 19-05-23.ngb-dd9
#FORMAT:                     ;NETZSCH5
#IDENTITY:                   ;Mariana
#DECIMAL:                    ;POINT
#SEPARATOR:                  ;SEMICOLON
#MTYPE:                      ;DTA
#INSTRUMENT:                 ;NETZSCH DSC 404F3
#PROJECT:                    ;Mariana
#DATE/TIME:                  ;11/06/2023 12:45:57
#CORR. FILE:                 ;DTA_Branco 19-05-23.ngb-bd9
#LABORATORY:                 ;DSC/DTA
#OPERATOR:                   ;Pamela
#REMARK:                     ;Mariana
#SAMPLE:                     ;Z4A
#SAMPLE MASS /mg:            ;122.42
#MATERIAL:                   ;B2O3
#REFERENCE:                  ;Empty
#REFERENCE MASS /mg:         ;0
#TYPE OF CRUCIBLE:           ;DTA/TG crucible Al2O3
#SAMPLE CRUCIBLE MASS /mg:   ;1349.82
#REFERENCE CRUCIBLE MASS /mg:;1349.49
#CORR. CODE:                 ;020
#EXO:                        ;-1
#RANGE:                      ;20/10.0(K/min)/1300
#SEGMENT:                    ;S1/1

##Temp./øC;Time/min;DTA/(uV/mg);Sensit./(uV/mW)
  20.54600;0.0000e+000;-2.4474e-002;1.00000
  20.55100;    0.11000;-2.2610e-002;1.00000
  20.60300;    0.22000;-2.0952e-002;1.00000
  20.61200;    0.33000;-1.9413e-002;1.00000
  20.65300;    0.44000;-1.8061e-002;1.00000
  20.70000;    0.55000;-1.6746e-002;1.00000
  20.76100;    0.66000;-1.5630e-002;1.00000
  20.81800;    0.77000;-1.4409e-002;1.00000
  20.90000;    0.88000;-1.3312e-002;1.00000
  21.05200;    0.99000;-1.2327e-002;1.00000
  21.17500;    1.10000;-1.1174e-002;1.00000
  21.33600;    1.21000;-1.0121e-002;1.00000
  21.52900;    1.32000;-9.1862e-003;1.00000
  21.74600;    1.43000;-8.1454e-003;1.00000
  21.95400;    1.54000;-7.0797e-003;1.00000
  22.18400;    1.65000;-6.0950e-003;1.00000
  22.45300;    1.76000;-4.9670e-003;1.00000
  22.74300;    1.87000;-3.9450e-003;1.00000
  23.03200;    1.98000;-2.8045e-003;1.00000
  23.35700;    2.09000;-1.7575e-003;1.00000
  23.69800;    2.20000;-6.9177e-004;1.00000
  24.03300;    2.31000; 4.4871e-004;1.00000
  24.40800;    2.42000; 1.4209e-003;1.00000
  24.79000;    2.53000; 2.4492e-003;1.00000
  25.20100;    2.64000; 3.5336e-003;1.00000
  25.63000;    2.75000; 4.5993e-003;1.00000
  26.07700;    2.86000; 5.5217e-003;1.00000
  26.55600;    2.97000; 6.5625e-003;1.00000
  27.03500;    3.08000; 7.4848e-003;1.00000
  27.54800;    3.19000; 8.4383e-003;1.00000
  28.09400;    3.30000; 9.2485e-003;1.00000
  28.64500;    3.41000; 1.0127e-002;1.00000
  29.22400;    3.52000; 1.0950e-002;1.00000
  29.85900;    3.63000; 1.1754e-002;1.00000
  30.49000;    3.74000; 1.2539e-002;1.00000
  31.15800;    3.85000; 1.3318e-002;1.00000
  31.86100;    3.96000; 1.4047e-002;1.00000
  32.55900;    4.07000; 1.4758e-002;1.00000
  33.30700;    4.18000; 1.5418e-002;1.00000
  34.08000;    4.29000; 1.6123e-002;1.00000
  34.87100;    4.40000; 1.6796e-002;1.00000
  35.71600;    4.51000; 1.7512e-002;1.00000
  36.54200;    4.62000; 1.8104e-002;1.00000
  37.42700;    4.73000; 1.8759e-002;1.00000
  38.33400;    4.84000; 1.9463e-002;1.00000
  39.26500;    4.95000; 2.0161e-002;1.00000
  40.21600;    5.06000; 2.0809e-002;1.00000
  41.20300;    5.17000; 2.1520e-002;1.00000
  42.20500;    5.28000; 2.2193e-002;1.00000
  43.21200;    5.39000; 2.2903e-002;1.00000
  44.26700;    5.50000; 2.3626e-002;1.00000
  45.34200;    5.61000; 2.4305e-002;1.00000
  46.46100;    5.72000; 2.5109e-002;1.00000
  47.56900;    5.83000; 2.5838e-002;1.00000
  48.72100;    5.94000; 2.6580e-002;1.00000
  49.89100;    6.05000; 2.7459e-002;1.00000
  51.06800;    6.16000; 2.8194e-002;1.00000
  52.29500;    6.27000; 2.8986e-002;1.00000
  53.53400;    6.38000; 2.9765e-002;1.00000
  54.78000;    6.49000; 3.0600e-002;1.00000
  56.05800;    6.60000; 3.1422e-002;1.00000
  57.34700;    6.71000; 3.2127e-002;1.00000
  58.67200;    6.82000; 3.2850e-002;1.00000
  60.01700;    6.93000; 3.3654e-002;1.00000
  61.37300;    7.04000; 3.4258e-002;1.00000
  62.75200;    7.15000; 3.5018e-002;1.00000
  64.13800;    7.26000; 3.5673e-002;1.00000
  65.53100;    7.37000; 3.6452e-002;1.00000
  66.95600;    7.48000; 3.7299e-002;1.00000
  68.39700;    7.59000; 3.8004e-002;1.00000
  69.85400;    7.70000; 3.8901e-002;1.00000
  71.31500;    7.81000; 3.9848e-002;1.00000
  72.79600;    7.92000; 4.0808e-002;1.00000
  74.26500;    8.03000; 4.1793e-002;1.00000
  75.77000;    8.14000; 4.2896e-002;1.00000
  77.27000;    8.25000; 4.3968e-002;1.00000
  78.79000;    8.36000; 4.5139e-002;1.00000
  80.33600;    8.47000; 4.6211e-002;1.00000
  81.88300;    8.58000; 4.7464e-002;1.00000
  83.42800;    8.69000; 4.8848e-002;1.00000
  84.97100;    8.80000; 5.0175e-002;1.00000
  86.54600;    8.91000; 5.1552e-002;1.00000
  88.14500;    9.02000; 5.3017e-002;1.00000
  89.73100;    9.13000; 5.4450e-002;1.00000
  91.32500;    9.24000; 5.5946e-002;1.00000
  92.90800;    9.35000; 5.7479e-002;1.00000
  94.52100;    9.46000; 5.9075e-002;1.00000
  96.14900;    9.57000; 6.0676e-002;1.00000
  97.74600;    9.68000; 6.2309e-002;1.00000
  99.37400;    9.79000; 6.3954e-002;1.00000
 100.988;    9.90000; 6.5737e-002;1.00000
 102.617;   10.01000; 6.7419e-002;1.00000
 104.239;   10.12000; 6.9227e-002;1.00000
 105.849;   10.23000; 7.0978e-002;1.00000
 107.469;   10.34000; 7.2605e-002;1.00000
 109.075;   10.45000; 7.4424e-002;1.00000
 110.703;   10.56000; 7.6032e-002;1.00000
 112.315;   10.67000; 7.7759e-002;1.00000
 113.928;   10.78000; 7.9416e-002;1.00000
 115.519;   10.89000; 8.1055e-002;1.00000
 117.132;   11.00000; 8.2507e-002;1.00000
 118.715;   11.11000; 8.3984e-002;1.00000
 120.325;   11.22000; 8.5524e-002;1.00000
 121.907;   11.33000; 8.6870e-002;1.00000
 123.516;   11.44000; 8.8260e-002;1.00000
 125.079;   11.55000; 8.9587e-002;1.00000
 126.668;   11.66000; 9.0927e-002;1.00000
 128.237;   11.77000; 9.2236e-002;1.00000
 129.818;   11.88000; 9.3358e-002;1.00000
 131.392;   11.99000; 9.4548e-002;1.00000
 132.966;   12.10000; 9.5620e-002;1.00000
 134.52;   12.21000; 9.6729e-002;1.00000
 136.091;   12.32000; 9.7714e-002;1.00000
 137.614;   12.43000; 9.8630e-002;1.00000
 139.166;   12.54000; 9.9596e-002;1.00000
 140.694;   12.65000;     0.10039;1.00000
 142.222;   12.76000;     0.10116;1.00000
 143.734;   12.87000;     0.10190;1.00000
 145.257;   12.98000;     0.10259;1.00000
 146.76;   13.09000;     0.10327;1.00000
 148.251;   13.20000;     0.10380;1.00000
 149.738;   13.31000;     0.10429;1.00000
 151.212;   13.42000;     0.10481;1.00000
 152.681;   13.53000;     0.10521;1.00000
 154.138;   13.64000;     0.10568;1.00000
 155.597;   13.75000;     0.10595;1.00000
 157.032;   13.86000;     0.10626;1.00000
 158.471;   13.97000;     0.10648;1.00000
 159.885;   14.08000;     0.10668;1.00000
 161.304;   14.19000;     0.10683;1.00000
 162.705;   14.30000;     0.10689;1.00000
 164.105;   14.41000;     0.10711;1.00000
 165.471;   14.52000;     0.10721;1.00000
 166.845;   14.63000;     0.10720;1.00000
 168.216;   14.74000;     0.10721;1.00000
 169.569;   14.85000;     0.10723;1.00000
 170.912;   14.96000;     0.10714;1.00000
 172.249;   15.07000;     0.10707;1.00000
 173.598;   15.18000;     0.10701;1.00000
 174.899;   15.29000;     0.10688;1.00000
 176.213;   15.40000;     0.10685;1.00000
 177.509;   15.51000;     0.10666;1.00000
 178.805;   15.62000;     0.10651;1.00000
 180.093;   15.73000;     0.10631;1.00000
 181.372;   15.84000;     0.10603;1.00000
 182.648;   15.95000;     0.10575;1.00000
 183.902;   16.06000;     0.10552;1.00000
 185.174;   16.17000;     0.10524;1.00000
 186.409;   16.28000;     0.10494;1.00000
 187.642;   16.39000;     0.10459;1.00000
 188.86;   16.50000;     0.10415;1.00000
 190.11;   16.61000;     0.10373;1.00000
 191.319;   16.72000;     0.10322;1.00000
 192.53;   16.83000;     0.10276;1.00000
 193.722;   16.94000;     0.10218;1.00000
 194.933;   17.05000;     0.10160;1.00000
 196.104;   17.16000;     0.10095;1.00000
 197.288;   17.27000;     0.10026;1.00000
 198.473;   17.38000; 9.9446e-002;1.00000
 199.634;   17.49000; 9.8636e-002;1.00000
 200.791;   17.60000; 9.7726e-002;1.00000
 201.943;   17.71000; 9.6742e-002;1.00000
 203.086;   17.82000; 9.5738e-002;1.00000
 204.216;   17.93000; 9.4523e-002;1.00000
 205.341;   18.04000; 9.3283e-002;1.00000
 206.484;   18.15000; 9.2005e-002;1.00000
 207.593;   18.26000; 9.0566e-002;1.00000
 208.726;   18.37000; 8.9064e-002;1.00000
 209.828;   18.48000; 8.7468e-002;1.00000
 210.955;   18.59000; 8.5873e-002;1.00000
 212.046;   18.70000; 8.4109e-002;1.00000
 213.147;   18.81000; 8.2221e-002;1.00000
 214.245;   18.92000; 8.0251e-002;1.00000
 215.337;   19.03000; 7.8164e-002;1.00000
 216.415;   19.14000; 7.5976e-002;1.00000
 217.504;   19.25000; 7.3745e-002;1.00000
 218.585;   19.36000; 7.1296e-002;1.00000
 219.65;   19.47000; 6.8790e-002;1.00000
 220.717;   19.58000; 6.6123e-002;1.00000
 221.795;   19.69000; 6.3400e-002;1.00000
 222.866;   19.80000; 6.0439e-002;1.00000
 223.918;   19.91000; 5.7548e-002;1.00000
 224.96;   20.02000; 5.4388e-002;1.00000
 226.024;   20.13000; 5.1228e-002;1.00000
 227.079;   20.24000; 4.7907e-002;1.00000
 228.141;   20.35000; 4.4491e-002;1.00000
 229.18;   20.46000; 4.0995e-002;1.00000
 230.232;   20.57000; 3.7318e-002;1.00000
 231.292;   20.68000; 3.3635e-002;1.00000
 232.328;   20.79000; 2.9783e-002;1.00000
 233.369;   20.90000; 2.5895e-002;1.00000
 234.413;   21.01000; 2.1962e-002;1.00000
 235.451;   21.12000; 1.7830e-002;1.00000
 236.487;   21.23000; 1.3723e-002;1.00000
 237.526;   21.34000; 9.5103e-003;1.00000
 238.562;   21.45000; 5.3347e-003;1.00000
 239.604;   21.56000; 8.8496e-004;1.00000
 240.64;   21.67000;-3.4526e-003;1.00000
 241.678;   21.78000;-7.9585e-003;1.00000
 242.693;   21.89000;-1.2433e-002;1.00000
 243.74;   22.00000;-1.6970e-002;1.00000
 244.778;   22.11000;-2.1632e-002;1.00000
 245.81;   22.22000;-2.6206e-002;1.00000
 246.843;   22.33000;-3.0799e-002;1.00000
 247.873;   22.44000;-3.5430e-002;1.00000
 248.899;   22.55000;-4.0035e-002;1.00000
 249.939;   22.66000;-4.4641e-002;1.00000
 250.971;   22.77000;-4.9271e-002;1.00000
 252.01;   22.88000;-5.3914e-002;1.00000
 253.043;   22.99000;-5.8551e-002;1.00000
 254.067;   23.10000;-6.3076e-002;1.00000
 255.107;   23.21000;-6.7625e-002;1.00000
 256.141;   23.32000;-7.2168e-002;1.00000
 257.162;   23.43000;-7.6549e-002;1.00000
 258.216;   23.54000;-8.1080e-002;1.00000
 259.252;   23.65000;-8.5393e-002;1.00000
 260.267;   23.76000;-8.9805e-002;1.00000
 261.317;   23.87000;-9.4074e-002;1.00000
 262.357;   23.98000;-9.8356e-002;1.00000
 263.368;   24.09000;    -0.10252;1.00000
 264.43;   24.20000;    -0.10669;1.00000
 265.477;   24.31000;    -0.11069;1.00000
 266.507;   24.42000;    -0.11471;1.00000
 267.543;   24.53000;    -0.11862;1.00000
 268.587;   24.64000;    -0.12256;1.00000
 269.625;   24.75000;    -0.12629;1.00000
 270.664;   24.86000;    -0.13004;1.00000
 271.697;   24.97000;    -0.13367;1.00000
 272.75;   25.08000;    -0.13733;1.00000
 273.793;   25.19000;    -0.14087;1.00000
 274.837;   25.30000;    -0.14438;1.00000
 275.872;   25.41000;    -0.14776;1.00000
 276.921;   25.52000;    -0.15113;1.00000
 277.965;   25.63000;    -0.15438;1.00000
 279.017;   25.74000;    -0.15760;1.00000
 280.065;   25.85000;    -0.16078;1.00000
 281.113;   25.96000;    -0.16381;1.00000
 282.157;   26.07000;    -0.16677;1.00000
 283.21;   26.18000;    -0.16961;1.00000
 284.265;   26.29000;    -0.17244;1.00000
 285.306;   26.40000;    -0.17519;1.00000
 286.355;   26.51000;    -0.17789;1.00000
 287.4;   26.62000;    -0.18054;1.00000
 288.464;   26.73000;    -0.18332;1.00000
 289.52;   26.84000;    -0.18597;1.00000
 290.555;   26.95000;    -0.18860;1.00000
 291.626;   27.06000;    -0.19121;1.00000
 292.684;   27.17000;    -0.19363;1.00000
 293.741;   27.28000;    -0.19620;1.00000
 294.798;   27.39000;    -0.19867;1.00000
 295.84;   27.50000;    -0.20101;1.00000
 296.914;   27.61000;    -0.20335;1.00000
 297.975;   27.72000;    -0.20563;1.00000
 299.03;   27.83000;    -0.20779;1.00000
 300.096;   27.94000;    -0.20998;1.00000
 301.157;   28.05000;    -0.21204;1.00000
 302.217;   28.16000;    -0.21402;1.00000
 303.288;   28.27000;    -0.21590;1.00000
 304.349;   28.38000;    -0.21785;1.00000
 305.41;   28.49000;    -0.21963;1.00000
 306.47;   28.60000;    -0.22148;1.00000
 307.544;   28.71000;    -0.22322;1.00000
 308.616;   28.82000;    -0.22486;1.00000
 309.684;   28.93000;    -0.22654;1.00000
 310.757;   29.04000;    -0.22818;1.00000
 311.822;   29.15000;    -0.22965;1.00000
 312.882;   29.26000;    -0.23123;1.00000
 313.961;   29.37000;    -0.23276;1.00000
 315.041;   29.48000;    -0.23434;1.00000
 316.101;   29.59000;    -0.23582;1.00000
 317.163;   29.70000;    -0.23716;1.00000
 318.254;   29.81000;    -0.23857;1.00000
 319.327;   29.92000;    -0.24003;1.00000
 320.401;   30.03000;    -0.24143;1.00000
 321.486;   30.14000;    -0.24284;1.00000
 322.55;   30.25000;    -0.24424;1.00000
 323.634;   30.36000;    -0.24557;1.00000
 324.711;   30.47000;    -0.24693;1.00000
 325.782;   30.58000;    -0.24819;1.00000
 326.873;   30.69000;    -0.24951;1.00000
 327.943;   30.80000;    -0.25077;1.00000
 329.023;   30.91000;    -0.25207;1.00000
 330.091;   31.02000;    -0.25337;1.00000
 331.174;   31.13000;    -0.25454;1.00000
 332.257;   31.24000;    -0.25589;1.00000
 333.341;   31.35000;    -0.25716;1.00000
 334.419;   31.46000;    -0.25838;1.00000
 335.508;   31.57000;    -0.25961;1.00000
 336.577;   31.68000;    -0.26081;1.00000
 337.66;   31.79000;    -0.26211;1.00000
 338.741;   31.90000;    -0.26318;1.00000
 339.82;   32.01000;    -0.26429;1.00000
 340.896;   32.12000;    -0.26548;1.00000
 341.988;   32.23000;    -0.26659;1.00000
 343.067;   32.34000;    -0.26773;1.00000
 344.146;   32.45000;    -0.26882;1.00000
 345.231;   32.56000;    -0.26988;1.00000
 346.326;   32.67000;    -0.27101;1.00000
 347.406;   32.78000;    -0.27196;1.00000
 348.483;   32.89000;    -0.27299;1.00000
 349.573;   33.00000;    -0.27402;1.00000
 350.651;   33.11000;    -0.27504;1.00000
 351.734;   33.22000;    -0.27593;1.00000
 352.816;   33.33000;    -0.27690;1.00000
 353.896;   33.44000;    -0.27788;1.00000
 354.995;   33.55000;    -0.27885;1.00000
 356.068;   33.66000;    -0.27967;1.00000
 357.167;   33.77000;    -0.28056;1.00000
 358.251;   33.88000;    -0.28142;1.00000
 359.344;   33.99000;    -0.28222;1.00000
 360.412;   34.10000;    -0.28314;1.00000
 361.508;   34.21000;    -0.28392;1.00000
 362.598;   34.32000;    -0.28466;1.00000
 363.686;   34.43000;    -0.28546;1.00000
 364.768;   34.54000;    -0.28625;1.00000
 365.857;   34.65000;    -0.28695;1.00000
 366.947;   34.76000;    -0.28766;1.00000
 368.038;   34.87000;    -0.28830;1.00000
 369.13;   34.98000;    -0.28906;1.00000
 370.22;   35.09000;    -0.28970;1.00000
 371.297;   35.20000;    -0.29032;1.00000
 372.406;   35.31000;    -0.29086;1.00000
 373.47;   35.42000;    -0.29144;1.00000
 374.569;   35.53000;    -0.29199;1.00000
 375.651;   35.64000;    -0.29257;1.00000
 376.744;   35.75000;    -0.29319;1.00000
 377.818;   35.86000;    -0.29370;1.00000
 378.922;   35.97000;    -0.29426;1.00000
 380.003;   36.08000;    -0.29479;1.00000
 381.088;   36.19000;    -0.29529;1.00000
 382.185;   36.30000;    -0.29584;1.00000
 383.273;   36.41000;    -0.29636;1.00000
 384.364;   36.52000;    -0.29686;1.00000
 385.452;   36.63000;    -0.29730;1.00000
 386.541;   36.74000;    -0.29768;1.00000
 387.63;   36.85000;    -0.29814;1.00000
 388.72;   36.96000;    -0.29854;1.00000
 389.81;   37.07000;    -0.29889;1.00000
 390.896;   37.18000;    -0.29924;1.00000
 391.993;   37.29000;    -0.29968;1.00000
 393.09;   37.40000;    -0.30006;1.00000
 394.191;   37.51000;    -0.30033;1.00000
 395.267;   37.62000;    -0.30076;1.00000
 396.347;   37.73000;    -0.30106;1.00000
 397.442;   37.84000;    -0.30129;1.00000
 398.536;   37.95000;    -0.30163;1.00000
 399.616;   38.06000;    -0.30193;1.00000
 400.713;   38.17000;    -0.30210;1.00000
 401.793;   38.28000;    -0.30235;1.00000
 402.9;   38.39000;    -0.30256;1.00000
 403.977;   38.50000;    -0.30283;1.00000
 405.083;   38.61000;    -0.30302;1.00000
 406.17;   38.72000;    -0.30313;1.00000
 407.265;   38.83000;    -0.30328;1.00000
 408.35;   38.94000;    -0.30355;1.00000
 409.426;   39.05000;    -0.30366;1.00000
 410.525;   39.16000;    -0.30368;1.00000
 411.622;   39.27000;    -0.30369;1.00000
 412.707;   39.38000;    -0.30383;1.00000
 413.813;   39.49000;    -0.30380;1.00000
 414.883;   39.60000;    -0.30384;1.00000
 415.978;   39.71000;    -0.30388;1.00000
 417.069;   39.82000;    -0.30390;1.00000
 418.162;   39.93000;    -0.30385;1.00000
 419.257;   40.04000;    -0.30380;1.00000
 420.344;   40.15000;    -0.30374;1.00000
 421.443;   40.26000;    -0.30362;1.00000
 422.533;   40.37000;    -0.30362;1.00000
 423.625;   40.48000;    -0.30352;1.00000
 424.729;   40.59000;    -0.30339;1.00000
 425.807;   40.70000;    -0.30325;1.00000
 426.908;   40.81000;    -0.30310;1.00000
 427.99;   40.92000;    -0.30295;1.00000
 429.094;   41.03000;    -0.30267;1.00000
 430.173;   41.14000;    -0.30246;1.00000
 431.257;   41.25000;    -0.30233;1.00000
 432.36;   41.36000;    -0.30202;1.00000
 433.451;   41.47000;    -0.30179;1.00000
 434.548;   41.58000;    -0.30150;1.00000
 435.637;   41.69000;    -0.30119;1.00000
 436.73;   41.80000;    -0.30094;1.00000
 437.814;   41.91000;    -0.30057;1.00000
 438.931;   42.02000;    -0.30028;1.00000
 440.005;   42.13000;    -0.29985;1.00000
 441.108;   42.24000;    -0.29956;1.00000
 442.201;   42.35000;    -0.29920;1.00000
 443.286;   42.46000;    -0.29881;1.00000
 444.392;   42.57000;    -0.29841;1.00000
 445.47;   42.68000;    -0.29784;1.00000
 446.563;   42.79000;    -0.29741;1.00000
 447.661;   42.90000;    -0.29696;1.00000
 448.753;   43.01000;    -0.29649;1.00000
 449.831;   43.12000;    -0.29607;1.00000
 450.935;   43.23000;    -0.29555;1.00000
 452.022;   43.34000;    -0.29508;1.00000
 453.11;   43.45000;    -0.29466;1.00000
 454.206;   43.56000;    -0.29415;1.00000
 455.299;   43.67000;    -0.29362;1.00000
 456.401;   43.78000;    -0.29312;1.00000
 457.487;   43.89000;    -0.29264;1.00000
 458.576;   44.00000;    -0.29211;1.00000
 459.663;   44.11000;    -0.29158;1.00000
 460.763;   44.22000;    -0.29100;1.00000
 461.867;   44.33000;    -0.29051;1.00000
 462.943;   44.44000;    -0.28997;1.00000
 464.04;   44.55000;    -0.28939;1.00000
 465.131;   44.66000;    -0.28878;1.00000
 466.221;   44.77000;    -0.28833;1.00000
 467.318;   44.88000;    -0.28781;1.00000
 468.42;   44.99000;    -0.28732;1.00000
 469.508;   45.10000;    -0.28677;1.00000
 470.597;   45.21000;    -0.28623;1.00000
 471.694;   45.32000;    -0.28564;1.00000
 472.784;   45.43000;    -0.28515;1.00000
 473.876;   45.54000;    -0.28486;1.00000
 474.974;   45.65000;    -0.28461;1.00000
 476.072;   45.76000;    -0.28410;1.00000
 477.155;   45.87000;    -0.28361;1.00000
 478.25;   45.98000;    -0.28313;1.00000
 479.35;   46.09000;    -0.28270;1.00000
 480.435;   46.20000;    -0.28227;1.00000
 481.529;   46.31000;    -0.28181;1.00000
 482.63;   46.42000;    -0.28133;1.00000
 483.726;   46.53000;    -0.28088;1.00000
 484.814;   46.64000;    -0.28051;1.00000
 485.915;   46.75000;    -0.28007;1.00000
 487.01;   46.86000;    -0.27975;1.00000
 488.097;   46.97000;    -0.27937;1.00000
 489.191;   47.08000;    -0.27906;1.00000
 490.279;   47.19000;    -0.27872;1.00000
 491.372;   47.30000;    -0.27842;1.00000
 492.478;   47.41000;    -0.27804;1.00000
 493.579;   47.52000;    -0.27772;1.00000
 494.655;   47.63000;    -0.27750;1.00000
 495.739;   47.74000;    -0.27722;1.00000
 496.855;   47.85000;    -0.27688;1.00000
 497.954;   47.96000;    -0.27663;1.00000
 499.031;   48.07000;    -0.27631;1.00000
 500.135;   48.18000;    -0.27605;1.00000
 501.224;   48.29000;    -0.27585;1.00000
 502.326;   48.40000;    -0.27565;1.00000
 503.419;   48.51000;    -0.27539;1.00000
 504.515;   48.62000;    -0.27521;1.00000
 505.619;   48.73000;    -0.27497;1.00000
 506.71;   48.84000;    -0.27483;1.00000
 507.804;   48.95000;    -0.27459;1.00000
 508.895;   49.06000;    -0.27451;1.00000
 509.979;   49.17000;    -0.27427;1.00000
 511.097;   49.28000;    -0.27411;1.00000
 512.187;   49.39000;    -0.27400;1.00000
 513.285;   49.50000;    -0.27387;1.00000
 514.372;   49.61000;    -0.27365;1.00000
 515.476;   49.72000;    -0.27360;1.00000
 516.587;   49.83000;    -0.27347;1.00000
 517.669;   49.94000;    -0.27338;1.00000
 518.772;   50.05000;    -0.27327;1.00000
 519.867;   50.16000;    -0.27319;1.00000
 520.966;   50.27000;    -0.27301;1.00000
 522.062;   50.38000;    -0.27297;1.00000
 523.153;   50.49000;    -0.27287;1.00000
 524.266;   50.60000;    -0.27279;1.00000
 525.343;   50.71000;    -0.27269;1.00000
 526.46;   50.82000;    -0.27259;1.00000
 527.555;   50.93000;    -0.27244;1.00000
 528.651;   51.04000;    -0.27237;1.00000
 529.739;   51.15000;    -0.27226;1.00000
 530.844;   51.26000;    -0.27226;1.00000
 531.939;   51.37000;    -0.27216;1.00000
 533.046;   51.48000;    -0.27215;1.00000
 534.142;   51.59000;    -0.27200;1.00000
 535.232;   51.70000;    -0.27193;1.00000
 536.337;   51.81000;    -0.27183;1.00000
 537.435;   51.92000;    -0.27194;1.00000
 538.526;   52.03000;    -0.27183;1.00000
 539.613;   52.14000;    -0.27182;1.00000
 540.729;   52.25000;    -0.27176;1.00000
 541.822;   52.36000;    -0.27171;1.00000
 542.924;   52.47000;    -0.27173;1.00000
 544.012;   52.58000;    -0.27172;1.00000
 545.117;   52.69000;    -0.27168;1.00000
 546.212;   52.80000;    -0.27174;1.00000
 547.307;   52.91000;    -0.27167;1.00000
 548.399;   53.02000;    -0.27166;1.00000
 549.499;   53.13000;    -0.27163;1.00000
 550.603;   53.24000;    -0.27172;1.00000
 551.699;   53.35000;    -0.27167;1.00000
 552.801;   53.46000;    -0.27169;1.00000
 553.901;   53.57000;    -0.27170;1.00000
 554.985;   53.68000;    -0.27170;1.00000
 556.09;   53.79000;    -0.27174;1.00000
 557.193;   53.90000;    -0.27178;1.00000
 558.293;   54.01000;    -0.27183;1.00000
 559.391;   54.12000;    -0.27187;1.00000
 560.475;   54.23000;    -0.27184;1.00000
 561.58;   54.34000;    -0.27191;1.00000
 562.687;   54.45000;    -0.27190;1.00000
 563.774;   54.56000;    -0.27191;1.00000
 564.881;   54.67000;    -0.27193;1.00000
 565.967;   54.78000;    -0.27203;1.00000
 567.08;   54.89000;    -0.27205;1.00000
 568.171;   55.00000;    -0.27205;1.00000
 569.276;   55.11000;    -0.27201;1.00000
 570.357;   55.22000;    -0.27202;1.00000
 571.464;   55.33000;    -0.27208;1.00000
 572.569;   55.44000;    -0.27211;1.00000
 573.658;   55.55000;    -0.27212;1.00000
 574.761;   55.66000;    -0.27214;1.00000
 575.852;   55.77000;    -0.27212;1.00000
 576.96;   55.88000;    -0.27218;1.00000
 578.056;   55.99000;    -0.27223;1.00000
 579.149;   56.10000;    -0.27218;1.00000
 580.246;   56.21000;    -0.27226;1.00000
 581.349;   56.32000;    -0.27233;1.00000
 582.452;   56.43000;    -0.27233;1.00000
 583.549;   56.54000;    -0.27238;1.00000
 584.645;   56.65000;    -0.27239;1.00000
 585.749;   56.76000;    -0.27237;1.00000
 586.841;   56.87000;    -0.27244;1.00000
 587.933;   56.98000;    -0.27249;1.00000
 589.034;   57.09000;    -0.27244;1.00000
 590.136;   57.20000;    -0.27253;1.00000
 591.246;   57.31000;    -0.27248;1.00000
 592.334;   57.42000;    -0.27252;1.00000
 593.438;   57.53000;    -0.27256;1.00000
 594.537;   57.64000;    -0.27259;1.00000
 595.636;   57.75000;    -0.27263;1.00000
 596.725;   57.86000;    -0.27264;1.00000
 597.83;   57.97000;    -0.27262;1.00000
 598.918;   58.08000;    -0.27263;1.00000
 600.024;   58.19000;    -0.27263;1.00000
 601.127;   58.30000;    -0.27264;1.00000
 602.225;   58.41000;    -0.27268;1.00000
 603.321;   58.52000;    -0.27273;1.00000
 604.425;   58.63000;    -0.27280;1.00000
 605.519;   58.74000;    -0.27273;1.00000
 606.622;   58.85000;    -0.27274;1.00000
 607.726;   58.96000;    -0.27277;1.00000
 608.818;   59.07000;    -0.27285;1.00000
 609.915;   59.18000;    -0.27279;1.00000
 611.006;   59.29000;    -0.27294;1.00000
 612.113;   59.40000;    -0.27284;1.00000
 613.207;   59.51000;    -0.27286;1.00000
 614.313;   59.62000;    -0.27294;1.00000
 615.41;   59.73000;    -0.27276;1.00000
 616.512;   59.84000;    -0.27280;1.00000
 617.611;   59.95000;    -0.27276;1.00000
 618.709;   60.06000;    -0.27274;1.00000
 619.799;   60.17000;    -0.27273;1.00000
 620.894;   60.28000;    -0.27277;1.00000
 621.997;   60.39000;    -0.27274;1.00000
 623.09;   60.50000;    -0.27277;1.00000
 624.185;   60.61000;    -0.27273;1.00000
 625.294;   60.72000;    -0.27271;1.00000
 626.395;   60.83000;    -0.27273;1.00000
 627.483;   60.94000;    -0.27268;1.00000
 628.589;   61.05000;    -0.27271;1.00000
 629.681;   61.16000;    -0.27267;1.00000
 630.783;   61.27000;    -0.27273;1.00000
 631.886;   61.38000;    -0.27267;1.00000
 632.988;   61.49000;    -0.27267;1.00000
 634.082;   61.60000;    -0.27266;1.00000
 635.178;   61.71000;    -0.27270;1.00000
 636.274;   61.82000;    -0.27267;1.00000
 637.377;   61.93000;    -0.27268;1.00000
 638.486;   62.04000;    -0.27265;1.00000
 639.583;   62.15000;    -0.27261;1.00000
 640.694;   62.26000;    -0.27252;1.00000
 641.791;   62.37000;    -0.27243;1.00000
 642.879;   62.48000;    -0.27244;1.00000
 643.987;   62.59000;    -0.27228;1.00000
 645.093;   62.70000;    -0.27218;1.00000
 646.18;   62.81000;    -0.27213;1.00000
 647.295;   62.92000;    -0.27213;1.00000
 648.372;   63.03000;    -0.27210;1.00000
 649.479;   63.14000;    -0.27210;1.00000
 650.577;   63.25000;    -0.27202;1.00000
 651.68;   63.36000;    -0.27206;1.00000
 652.779;   63.47000;    -0.27203;1.00000
 653.875;   63.58000;    -0.27194;1.00000
 654.977;   63.69000;    -0.27196;1.00000
 656.075;   63.80000;    -0.27190;1.00000
 657.176;   63.91000;    -0.27172;1.00000
 658.282;   64.02000;    -0.27183;1.00000
 659.377;   64.13000;    -0.27170;1.00000
 660.47;   64.24000;    -0.27168;1.00000
 661.574;   64.35000;    -0.27157;1.00000
 662.675;   64.46000;    -0.27151;1.00000
 663.785;   64.57000;    -0.27143;1.00000
 664.88;   64.68000;    -0.27150;1.00000
 665.974;   64.79000;    -0.27129;1.00000
 667.07;   64.90000;    -0.27120;1.00000
 668.179;   65.01000;    -0.27125;1.00000
 669.267;   65.12000;    -0.27115;1.00000
 670.372;   65.23000;    -0.27107;1.00000
 671.468;   65.34000;    -0.27105;1.00000
 672.58;   65.45000;    -0.27100;1.00000
 673.675;   65.56000;    -0.27087;1.00000
 674.771;   65.67000;    -0.27091;1.00000
 675.871;   65.78000;    -0.27084;1.00000
 676.973;   65.89000;    -0.27091;1.00000
 678.075;   66.00000;    -0.27081;1.00000
 679.177;   66.11000;    -0.27080;1.00000
 680.276;   66.22000;    -0.27071;1.00000
 681.379;   66.33000;    -0.27055;1.00000
 682.472;   66.44000;    -0.27056;1.00000
 683.578;   66.55000;    -0.27041;1.00000
 684.681;   66.66000;    -0.27035;1.00000
 685.783;   66.77000;    -0.27027;1.00000
 686.883;   66.88000;    -0.27016;1.00000
 687.987;   66.99000;    -0.27017;1.00000
 689.085;   67.10000;    -0.27003;1.00000
 690.189;   67.21000;    -0.26994;1.00000
 691.286;   67.32000;    -0.26990;1.00000
 692.39;   67.43000;    -0.26992;1.00000
 693.482;   67.54000;    -0.26976;1.00000
 694.584;   67.65000;    -0.26977;1.00000
 695.687;   67.76000;    -0.26945;1.00000
 696.785;   67.87000;    -0.26938;1.00000
 697.887;   67.98000;    -0.26941;1.00000
 698.986;   68.09000;    -0.26933;1.00000
 700.087;   68.20000;    -0.26924;1.00000
 701.188;   68.31000;    -0.26921;1.00000
 702.285;   68.42000;    -0.26914;1.00000
 703.388;   68.53000;    -0.26905;1.00000
 704.483;   68.64000;    -0.26901;1.00000
 705.583;   68.75000;    -0.26893;1.00000
 706.682;   68.86000;    -0.26889;1.00000
 707.775;   68.97000;    -0.26881;1.00000
 708.882;   69.08000;    -0.26887;1.00000
 709.987;   69.19000;    -0.26878;1.00000
 711.089;   69.30000;    -0.26865;1.00000
 712.186;   69.41000;    -0.26853;1.00000
 713.285;   69.52000;    -0.26845;1.00000
 714.392;   69.63000;    -0.26842;1.00000
 715.499;   69.74000;    -0.26841;1.00000
 716.597;   69.85000;    -0.26836;1.00000
 717.7;   69.96000;    -0.26833;1.00000
 718.796;   70.07000;    -0.26828;1.00000
 719.903;   70.18000;    -0.26828;1.00000
 720.994;   70.29000;    -0.26811;1.00000
 722.097;   70.40000;    -0.26822;1.00000
 723.211;   70.51000;    -0.26823;1.00000
 724.305;   70.62000;    -0.26814;1.00000
 725.408;   70.73000;    -0.26814;1.00000
 726.501;   70.84000;    -0.26806;1.00000
 727.61;   70.95000;    -0.26804;1.00000
 728.709;   71.06000;    -0.26803;1.00000
 729.81;   71.17000;    -0.26795;1.00000
 730.9;   71.28000;    -0.26795;1.00000
 732.011;   71.39000;    -0.26786;1.00000
 733.119;   71.50000;    -0.26784;1.00000
 734.212;   71.61000;    -0.26764;1.00000
 735.311;   71.72000;    -0.26771;1.00000
 736.421;   71.83000;    -0.26778;1.00000
 737.515;   71.94000;    -0.26764;1.00000
 738.623;   72.05000;    -0.26774;1.00000
 739.726;   72.16000;    -0.26760;1.00000
 740.815;   72.27000;    -0.26774;1.00000
 741.918;   72.38000;    -0.26770;1.00000
 743.018;   72.49000;    -0.26765;1.00000
 744.119;   72.60000;    -0.26749;1.00000
 745.225;   72.71000;    -0.26759;1.00000
 746.325;   72.82000;    -0.26755;1.00000
 747.429;   72.93000;    -0.26767;1.00000
 748.521;   73.04000;    -0.26765;1.00000
 749.612;   73.15000;    -0.26776;1.00000
 750.727;   73.26000;    -0.26780;1.00000
 751.827;   73.37000;    -0.26776;1.00000
 752.922;   73.48000;    -0.26786;1.00000
 754.024;   73.59000;    -0.26804;1.00000
 755.142;   73.70000;    -0.26807;1.00000
 756.231;   73.81000;    -0.26814;1.00000
 757.336;   73.92000;    -0.26832;1.00000
 758.424;   74.03000;    -0.26852;1.00000
 759.533;   74.14000;    -0.26879;1.00000
 760.639;   74.25000;    -0.26900;1.00000
 761.732;   74.36000;    -0.26932;1.00000
 762.833;   74.47000;    -0.26975;1.00000
 763.935;   74.58000;    -0.27014;1.00000
 765.042;   74.69000;    -0.27050;1.00000
 766.144;   74.80000;    -0.27110;1.00000
 767.238;   74.91000;    -0.27153;1.00000
 768.337;   75.02000;    -0.27233;1.00000
 769.439;   75.13000;    -0.27308;1.00000
 770.537;   75.24000;    -0.27405;1.00000
 771.638;   75.35000;    -0.27517;1.00000
 772.73;   75.46000;    -0.27613;1.00000
 773.852;   75.57000;    -0.27728;1.00000
 774.944;   75.68000;    -0.27847;1.00000
 776.037;   75.79000;    -0.27997;1.00000
 777.148;   75.90000;    -0.28150;1.00000
 778.25;   76.01000;    -0.28317;1.00000
 779.351;   76.12000;    -0.28506;1.00000
 780.465;   76.23000;    -0.28719;1.00000
 781.563;   76.34000;    -0.28951;1.00000
 782.662;   76.45000;    -0.29206;1.00000
 783.763;   76.56000;    -0.29485;1.00000
 784.87;   76.67000;    -0.29788;1.00000
 785.977;   76.78000;    -0.30108;1.00000
 787.071;   76.89000;    -0.30440;1.00000
 788.17;   77.00000;    -0.30776;1.00000
 789.292;   77.11000;    -0.31078;1.00000
 790.384;   77.22000;    -0.31327;1.00000
 791.489;   77.33000;    -0.31484;1.00000
 792.596;   77.44000;    -0.31539;1.00000
 793.701;   77.55000;    -0.31454;1.00000
 794.8;   77.66000;    -0.31222;1.00000
 795.913;   77.77000;    -0.30870;1.00000
 797.009;   77.88000;    -0.30413;1.00000
 798.112;   77.99000;    -0.29865;1.00000
 799.207;   78.10000;    -0.29284;1.00000
 800.316;   78.21000;    -0.28675;1.00000
 801.406;   78.32000;    -0.28059;1.00000
 802.499;   78.43000;    -0.27462;1.00000
 803.59;   78.54000;    -0.26890;1.00000
 804.683;   78.65000;    -0.26335;1.00000
 805.793;   78.76000;    -0.25816;1.00000
 806.889;   78.87000;    -0.25330;1.00000
 807.977;   78.98000;    -0.24861;1.00000
 809.077;   79.09000;    -0.24444;1.00000
 810.17;   79.20000;    -0.24053;1.00000
 811.264;   79.31000;    -0.23690;1.00000
 812.366;   79.42000;    -0.23356;1.00000
 813.464;   79.53000;    -0.23056;1.00000
 814.556;   79.64000;    -0.22777;1.00000
 815.647;   79.75000;    -0.22527;1.00000
 816.741;   79.86000;    -0.22299;1.00000
 817.852;   79.97000;    -0.22099;1.00000
 818.946;   80.08000;    -0.21927;1.00000
 820.046;   80.19000;    -0.21763;1.00000
 821.139;   80.30000;    -0.21615;1.00000
 822.251;   80.41000;    -0.21488;1.00000
 823.348;   80.52000;    -0.21367;1.00000
 824.449;   80.63000;    -0.21257;1.00000
 825.562;   80.74000;    -0.21161;1.00000
 826.646;   80.85000;    -0.21083;1.00000
 827.754;   80.96000;    -0.21002;1.00000
 828.855;   81.07000;    -0.20936;1.00000
 829.962;   81.18000;    -0.20877;1.00000
 831.055;   81.29000;    -0.20824;1.00000
 832.17;   81.40000;    -0.20782;1.00000
 833.271;   81.51000;    -0.20752;1.00000
 834.367;   81.62000;    -0.20720;1.00000
 835.477;   81.73000;    -0.20691;1.00000
 836.572;   81.84000;    -0.20675;1.00000
 837.679;   81.95000;    -0.20650;1.00000
 838.775;   82.06000;    -0.20641;1.00000
 839.892;   82.17000;    -0.20628;1.00000
 840.982;   82.28000;    -0.20615;1.00000
 842.094;   82.39000;    -0.20603;1.00000
 843.195;   82.50000;    -0.20603;1.00000
 844.296;   82.61000;    -0.20598;1.00000
 845.397;   82.72000;    -0.20595;1.00000
 846.498;   82.83000;    -0.20590;1.00000
 847.603;   82.94000;    -0.20587;1.00000
 848.709;   83.05000;    -0.20590;1.00000
 849.809;   83.16000;    -0.20593;1.00000
 850.915;   83.27000;    -0.20599;1.00000
 852.007;   83.38000;    -0.20613;1.00000
 853.117;   83.49000;    -0.20623;1.00000
 854.218;   83.60000;    -0.20639;1.00000
 855.329;   83.71000;    -0.20655;1.00000
 856.428;   83.82000;    -0.20671;1.00000
 857.532;   83.93000;    -0.20698;1.00000
 858.638;   84.04000;    -0.20718;1.00000
 859.733;   84.15000;    -0.20742;1.00000
 860.837;   84.26000;    -0.20768;1.00000
 861.947;   84.37000;    -0.20792;1.00000
 863.051;   84.48000;    -0.20824;1.00000
 864.153;   84.59000;    -0.20848;1.00000
 865.246;   84.70000;    -0.20883;1.00000
 866.36;   84.81000;    -0.20913;1.00000
 867.444;   84.92000;    -0.20941;1.00000
 868.549;   85.03000;    -0.20982;1.00000
 869.661;   85.14000;    -0.21016;1.00000
 870.768;   85.25000;    -0.21064;1.00000
 871.87;   85.36000;    -0.21096;1.00000
 872.963;   85.47000;    -0.21142;1.00000
 874.072;   85.58000;    -0.21185;1.00000
 875.175;   85.69000;    -0.21238;1.00000
 876.276;   85.80000;    -0.21273;1.00000
 877.388;   85.91000;    -0.21330;1.00000
 878.49;   86.02000;    -0.21369;1.00000
 879.59;   86.13000;    -0.21417;1.00000
 880.693;   86.24000;    -0.21468;1.00000
 881.804;   86.35000;    -0.21516;1.00000
 882.91;   86.46000;    -0.21574;1.00000
 884.004;   86.57000;    -0.21629;1.00000
 885.112;   86.68000;    -0.21675;1.00000
 886.213;   86.79000;    -0.21728;1.00000
 887.319;   86.90000;    -0.21783;1.00000
 888.436;   87.01000;    -0.21843;1.00000
 889.529;   87.12000;    -0.21895;1.00000
 890.622;   87.23000;    -0.21953;1.00000
 891.73;   87.34000;    -0.22010;1.00000
 892.834;   87.45000;    -0.22072;1.00000
 893.94;   87.56000;    -0.22135;1.00000
 895.045;   87.67000;    -0.22196;1.00000
 896.136;   87.78000;    -0.22259;1.00000
 897.256;   87.89000;    -0.22310;1.00000
 898.345;   88.00000;    -0.22370;1.00000
 899.458;   88.11000;    -0.22438;1.00000
 900.543;   88.22000;    -0.22498;1.00000
 901.65;   88.33000;    -0.22567;1.00000
 902.768;   88.44000;    -0.22621;1.00000
 903.868;   88.55000;    -0.22697;1.00000
 904.976;   88.66000;    -0.22750;1.00000
 906.068;   88.77000;    -0.22800;1.00000
 907.171;   88.88000;    -0.22863;1.00000
 908.278;   88.99000;    -0.22927;1.00000
 909.387;   89.10000;    -0.22985;1.00000
 910.486;   89.21000;    -0.23051;1.00000
 911.576;   89.32000;    -0.23108;1.00000
 912.683;   89.43000;    -0.23166;1.00000
 913.787;   89.54000;    -0.23232;1.00000
 914.887;   89.65000;    -0.23286;1.00000
 916.001;   89.76000;    -0.23343;1.00000
 917.108;   89.87000;    -0.23396;1.00000
 918.206;   89.98000;    -0.23443;1.00000
 919.303;   90.09000;    -0.23504;1.00000
 920.402;   90.20000;    -0.23557;1.00000
 921.494;   90.31000;    -0.23612;1.00000
 922.605;   90.42000;    -0.23659;1.00000
 923.705;   90.53000;    -0.23701;1.00000
 924.81;   90.64000;    -0.23740;1.00000
 925.914;   90.75000;    -0.23778;1.00000
 927.016;   90.86000;    -0.23809;1.00000
 928.126;   90.97000;    -0.23850;1.00000
 929.227;   91.08000;    -0.23873;1.00000
 930.329;   91.19000;    -0.23896;1.00000
 931.42;   91.30000;    -0.23928;1.00000
 932.522;   91.41000;    -0.23946;1.00000
 933.619;   91.52000;    -0.23965;1.00000
 934.726;   91.63000;    -0.23980;1.00000
 935.827;   91.74000;    -0.24007;1.00000
 936.931;   91.85000;    -0.24013;1.00000
 938.035;   91.96000;    -0.24032;1.00000
 939.145;   92.07000;    -0.24036;1.00000
 940.236;   92.18000;    -0.24035;1.00000
 941.342;   92.29000;    -0.24040;1.00000
 942.444;   92.40000;    -0.24037;1.00000
 943.545;   92.51000;    -0.24038;1.00000
 944.644;   92.62000;    -0.24039;1.00000
 945.748;   92.73000;    -0.24041;1.00000
 946.847;   92.84000;    -0.24029;1.00000
 947.944;   92.95000;    -0.24027;1.00000
 949.048;   93.06000;    -0.24025;1.00000
 950.155;   93.17000;    -0.24015;1.00000
 951.244;   93.28000;    -0.24016;1.00000
 952.356;   93.39000;    -0.24012;1.00000
 953.455;   93.50000;    -0.24009;1.00000
 954.554;   93.61000;    -0.24002;1.00000
 955.658;   93.72000;    -0.23996;1.00000
 956.765;   93.83000;    -0.23994;1.00000
 957.869;   93.94000;    -0.23989;1.00000
 958.967;   94.05000;    -0.23975;1.00000
 960.075;   94.16000;    -0.23978;1.00000
 961.179;   94.27000;    -0.23975;1.00000
 962.276;   94.38000;    -0.23968;1.00000
 963.376;   94.49000;    -0.23964;1.00000
 964.488;   94.60000;    -0.23966;1.00000
 965.583;   94.71000;    -0.23960;1.00000
 966.679;   94.82000;    -0.23959;1.00000
 967.781;   94.93000;    -0.23958;1.00000
 968.891;   95.04000;    -0.23953;1.00000
 969.996;   95.15000;    -0.23960;1.00000
 971.095;   95.26000;    -0.23961;1.00000
 972.205;   95.37000;    -0.23959;1.00000
 973.301;   95.48000;    -0.23963;1.00000
 974.395;   95.59000;    -0.23965;1.00000
 975.507;   95.70000;    -0.23971;1.00000
 976.607;   95.81000;    -0.23976;1.00000
 977.703;   95.92000;    -0.23979;1.00000
 978.808;   96.03000;    -0.23976;1.00000
 979.91;   96.14000;    -0.23972;1.00000
 981.016;   96.25000;    -0.23986;1.00000
 982.12;   96.36000;    -0.23979;1.00000
 983.211;   96.47000;    -0.23984;1.00000
 984.326;   96.58000;    -0.23991;1.00000
 985.413;   96.69000;    -0.23990;1.00000
 986.529;   96.80000;    -0.24001;1.00000
 987.624;   96.91000;    -0.24004;1.00000
 988.716;   97.02000;    -0.24017;1.00000
 989.828;   97.13000;    -0.24024;1.00000
 990.931;   97.24000;    -0.24031;1.00000
 992.025;   97.35000;    -0.24042;1.00000
 993.125;   97.46000;    -0.24045;1.00000
 994.228;   97.57000;    -0.24047;1.00000
 995.338;   97.68000;    -0.24048;1.00000
 996.442;   97.79000;    -0.24054;1.00000
 997.545;   97.90000;    -0.24061;1.00000
 998.64;   98.01000;    -0.24055;1.00000
 999.754;   98.12000;    -0.24065;1.00000
1000.85;   98.23000;    -0.24067;1.00000
1001.95;   98.34000;    -0.24070;1.00000
1003.05;   98.45000;    -0.24074;1.00000
1004.18;   98.56000;    -0.24079;1.00000
1005.28;   98.67000;    -0.24078;1.00000
1006.37;   98.78000;    -0.24084;1.00000
1007.48;   98.89000;    -0.24095;1.00000
1008.58;   99.00000;    -0.24098;1.00000
1009.68;   99.11000;    -0.24101;1.00000
1010.8;   99.22000;    -0.24100;1.00000
1011.89;   99.33000;    -0.24107;1.00000
1013;   99.44000;    -0.24098;1.00000
1014.09;   99.55000;    -0.24101;1.00000
1015.2;   99.66000;    -0.24083;1.00000
1016.3;   99.77000;    -0.24075;1.00000
1017.4;   99.88000;    -0.24059;1.00000
1018.51;   99.99000;    -0.24051;1.00000
1019.6;  100.1;    -0.24045;1.00000
1020.71;  100.21;    -0.24039;1.00000
1021.82;  100.32;    -0.24031;1.00000
1022.93;  100.43;    -0.24026;1.00000
1024.03;  100.54;    -0.24016;1.00000
1025.14;  100.65;    -0.24010;1.00000
1026.23;  100.76;    -0.24015;1.00000
1027.35;  100.87;    -0.24014;1.00000
1028.44;  100.98;    -0.24010;1.00000
1029.55;  101.09;    -0.24006;1.00000
1030.65;  101.2;    -0.24000;1.00000
1031.75;  101.31;    -0.23991;1.00000
1032.86;  101.42;    -0.23991;1.00000
1033.96;  101.53;    -0.23989;1.00000
1035.05;  101.64;    -0.23989;1.00000
1036.15;  101.75;    -0.23985;1.00000
1037.26;  101.86;    -0.23988;1.00000
1038.36;  101.97;    -0.23985;1.00000
1039.47;  102.08;    -0.23989;1.00000
1040.57;  102.19;    -0.23986;1.00000
1041.68;  102.3;    -0.23991;1.00000
1042.78;  102.41;    -0.23994;1.00000
1043.88;  102.52;    -0.23995;1.00000
1044.98;  102.63;    -0.23999;1.00000
1046.08;  102.74;    -0.24016;1.00000
1047.19;  102.85;    -0.24023;1.00000
1048.3;  102.96;    -0.24032;1.00000
1049.38;  103.07;    -0.24040;1.00000
1050.49;  103.18;    -0.24055;1.00000
1051.59;  103.29;    -0.24057;1.00000
1052.7;  103.4;    -0.24064;1.00000
1053.8;  103.51;    -0.24080;1.00000
1054.9;  103.62;    -0.24086;1.00000
1056;  103.73;    -0.24093;1.00000
1057.11;  103.84;    -0.24105;1.00000
1058.2;  103.95;    -0.24115;1.00000
1059.31;  104.06;    -0.24145;1.00000
1060.42;  104.17;    -0.24147;1.00000
1061.52;  104.28;    -0.24158;1.00000
1062.61;  104.39;    -0.24167;1.00000
1063.72;  104.5;    -0.24178;1.00000
1064.82;  104.61;    -0.24178;1.00000
1065.92;  104.72;    -0.24181;1.00000
1067.02;  104.83;    -0.24191;1.00000
1068.13;  104.94;    -0.24196;1.00000
1069.22;  105.05;    -0.24203;1.00000
1070.34;  105.16;    -0.24213;1.00000
1071.44;  105.27;    -0.24213;1.00000
1072.55;  105.38;    -0.24206;1.00000
1073.65;  105.49;    -0.24208;1.00000
1074.76;  105.6;    -0.24208;1.00000
1075.87;  105.71;    -0.24194;1.00000
1076.95;  105.82;    -0.24193;1.00000
1078.06;  105.93;    -0.24199;1.00000
1079.17;  106.04;    -0.24206;1.00000
1080.28;  106.15;    -0.24205;1.00000
1081.37;  106.26;    -0.24203;1.00000
1082.47;  106.37;    -0.24195;1.00000
1083.58;  106.48;    -0.24194;1.00000
1084.68;  106.59;    -0.24177;1.00000
1085.8;  106.7;    -0.24168;1.00000
1086.9;  106.81;    -0.24161;1.00000
1088.01;  106.92;    -0.24148;1.00000
1089.1;  107.03;    -0.24130;1.00000
1090.2;  107.14;    -0.24135;1.00000
1091.3;  107.25;    -0.24118;1.00000
1092.41;  107.36;    -0.24100;1.00000
1093.51;  107.47;    -0.24092;1.00000
1094.61;  107.58;    -0.24060;1.00000
1095.71;  107.69;    -0.24043;1.00000
1096.82;  107.8;    -0.24032;1.00000
1097.93;  107.91;    -0.24009;1.00000
1099.02;  108.02;    -0.23986;1.00000
1100.12;  108.13;    -0.23967;1.00000
1101.23;  108.24;    -0.23938;1.00000
1102.34;  108.35;    -0.23915;1.00000
1103.44;  108.46;    -0.23885;1.00000
1104.55;  108.57;    -0.23860;1.00000
1105.65;  108.68;    -0.23827;1.00000
1106.76;  108.79;    -0.23797;1.00000
1107.86;  108.9;    -0.23772;1.00000
1108.97;  109.01;    -0.23730;1.00000
1110.07;  109.12;    -0.23695;1.00000
1111.16;  109.23;    -0.23677;1.00000
1112.26;  109.34;    -0.23647;1.00000
1113.37;  109.45;    -0.23616;1.00000
1114.47;  109.56;    -0.23586;1.00000
1115.57;  109.67;    -0.23542;1.00000
1116.66;  109.78;    -0.23501;1.00000
1117.77;  109.89;    -0.23467;1.00000
1118.87;  110;    -0.23432;1.00000
1119.97;  110.11;    -0.23386;1.00000
1121.07;  110.22;    -0.23343;1.00000
1122.17;  110.33;    -0.23300;1.00000
1123.27;  110.44;    -0.23257;1.00000
1124.38;  110.55;    -0.23209;1.00000
1125.47;  110.66;    -0.23160;1.00000
1126.59;  110.77;    -0.23111;1.00000
1127.69;  110.88;    -0.23080;1.00000
1128.78;  110.99;    -0.23022;1.00000
1129.88;  111.1;    -0.22974;1.00000
1130.99;  111.21;    -0.22917;1.00000
1132.09;  111.32;    -0.22868;1.00000
1133.2;  111.43;    -0.22810;1.00000
1134.3;  111.54;    -0.22769;1.00000
1135.39;  111.65;    -0.22710;1.00000
1136.51;  111.76;    -0.22659;1.00000
1137.61;  111.87;    -0.22602;1.00000
1138.72;  111.98;    -0.22549;1.00000
1139.82;  112.09;    -0.22498;1.00000
1140.93;  112.2;    -0.22445;1.00000
1142.03;  112.31;    -0.22378;1.00000
1143.14;  112.42;    -0.22309;1.00000
1144.24;  112.53;    -0.22263;1.00000
1145.35;  112.64;    -0.22207;1.00000
1146.45;  112.75;    -0.22134;1.00000
1147.56;  112.86;    -0.22071;1.00000
1148.65;  112.97;    -0.21997;1.00000
1149.76;  113.08;    -0.21938;1.00000
1150.86;  113.19;    -0.21872;1.00000
1151.96;  113.3;    -0.21798;1.00000
1153.07;  113.41;    -0.21730;1.00000
1154.16;  113.52;    -0.21662;1.00000
1155.27;  113.63;    -0.21598;1.00000
1156.37;  113.74;    -0.21529;1.00000
1157.47;  113.85;    -0.21457;1.00000
1158.57;  113.96;    -0.21397;1.00000
1159.67;  114.07;    -0.21317;1.00000
1160.78;  114.18;    -0.21241;1.00000
1161.89;  114.29;    -0.21168;1.00000
1162.98;  114.4;    -0.21094;1.00000
1164.1;  114.51;    -0.21019;1.00000
1165.2;  114.62;    -0.20943;1.00000
1166.3;  114.73;    -0.20870;1.00000
1167.4;  114.84;    -0.20784;1.00000
1168.51;  114.95;    -0.20714;1.00000
1169.62;  115.06;    -0.20635;1.00000
1170.72;  115.17;    -0.20556;1.00000
1171.82;  115.28;    -0.20471;1.00000
1172.92;  115.39;    -0.20394;1.00000
1174.02;  115.5;    -0.20311;1.00000
1175.13;  115.61;    -0.20238;1.00000
1176.23;  115.72;    -0.20164;1.00000
1177.33;  115.83;    -0.20082;1.00000
1178.44;  115.94;    -0.19990;1.00000
1179.53;  116.05;    -0.19935;1.00000
1180.65;  116.16;    -0.19869;1.00000
1181.74;  116.27;    -0.19788;1.00000
1182.84;  116.38;    -0.19724;1.00000
1183.95;  116.49;    -0.19655;1.00000
1185.05;  116.6;    -0.19590;1.00000
1186.15;  116.71;    -0.19540;1.00000
1187.25;  116.82;    -0.19485;1.00000
1188.35;  116.93;    -0.19432;1.00000
1189.46;  117.04;    -0.19394;1.00000
1190.55;  117.15;    -0.19351;1.00000
1191.66;  117.26;    -0.19323;1.00000
1192.76;  117.37;    -0.19300;1.00000
1193.86;  117.48;    -0.19278;1.00000
1194.97;  117.59;    -0.19249;1.00000
1196.08;  117.7;    -0.19231;1.00000
1197.18;  117.81;    -0.19207;1.00000
1198.28;  117.92;    -0.19189;1.00000
1199.38;  118.03;    -0.19166;1.00000
1200.49;  118.14;    -0.19148;1.00000
1201.58;  118.25;    -0.19123;1.00000
1202.69;  118.36;    -0.19110;1.00000
1203.8;  118.47;    -0.19087;1.00000
1204.9;  118.58;    -0.19054;1.00000
1206.01;  118.69;    -0.19034;1.00000
1207.12;  118.8;    -0.19007;1.00000
1208.21;  118.91;    -0.18984;1.00000
1209.3;  119.02;    -0.18956;1.00000
1210.41;  119.13;    -0.18921;1.00000
1211.51;  119.24;    -0.18890;1.00000
1212.62;  119.35;    -0.18855;1.00000
1213.71;  119.46;    -0.18818;1.00000
1214.83;  119.57;    -0.18785;1.00000
1215.93;  119.68;    -0.18746;1.00000
1217.03;  119.79;    -0.18705;1.00000
1218.12;  119.9;    -0.18662;1.00000
1219.24;  120.01;    -0.18619;1.00000
1220.34;  120.12;    -0.18572;1.00000
1221.42;  120.23;    -0.18536;1.00000
1222.53;  120.34;    -0.18485;1.00000
1223.62;  120.45;    -0.18449;1.00000
1224.74;  120.56;    -0.18399;1.00000
1225.83;  120.67;    -0.18362;1.00000
1226.94;  120.78;    -0.18316;1.00000
1228.05;  120.89;    -0.18268;1.00000
1229.15;  121;    -0.18237;1.00000
1230.26;  121.11;    -0.18202;1.00000
1231.36;  121.22;    -0.18174;1.00000
1232.46;  121.33;    -0.18139;1.00000
1233.56;  121.44;    -0.18089;1.00000
1234.66;  121.55;    -0.18047;1.00000
1235.76;  121.66;    -0.18012;1.00000
1236.85;  121.77;    -0.17966;1.00000
1237.94;  121.88;    -0.17917;1.00000
1239.05;  121.99;    -0.17878;1.00000
1240.15;  122.1;    -0.17824;1.00000
1241.25;  122.21;    -0.17781;1.00000
1242.34;  122.32;    -0.17724;1.00000
1243.43;  122.43;    -0.17666;1.00000
1244.54;  122.54;    -0.17616;1.00000
1245.64;  122.65;    -0.17572;1.00000
1246.74;  122.76;    -0.17505;1.00000
1247.85;  122.87;    -0.17454;1.00000
1248.95;  122.98;    -0.17426;1.00000
1250.06;  123.09;    -0.17357;1.00000
1251.16;  123.2;    -0.17304;1.00000
1252.27;  123.31;    -0.17242;1.00000
1253.36;  123.42;    -0.17176;1.00000
1254.47;  123.53;    -0.17102;1.00000
1255.57;  123.64;    -0.17041;1.00000
1256.68;  123.75;    -0.16976;1.00000
1257.78;  123.86;    -0.16910;1.00000
1258.88;  123.97;    -0.16857;1.00000
1259.99;  124.08;    -0.16804;1.00000
1261.1;  124.19;    -0.16759;1.00000
1262.2;  124.3;    -0.16704;1.00000
1263.31;  124.41;    -0.16639;1.00000
1264.42;  124.52;    -0.16580;1.00000
1265.53;  124.63;    -0.16530;1.00000
1266.64;  124.74;    -0.16463;1.00000
1267.75;  124.85;    -0.16398;1.00000
1268.87;  124.96;    -0.16331;1.00000
1269.97;  125.07;    -0.16265;1.00000
1271.07;  125.18;    -0.16201;1.00000
1272.18;  125.29;    -0.16142;1.00000
1273.28;  125.4;    -0.16073;1.00000
1274.38;  125.51;    -0.16010;1.00000
1275.48;  125.62;    -0.15936;1.00000
1276.57;  125.73;    -0.15875;1.00000
1277.67;  125.84;    -0.15817;1.00000
1278.78;  125.95;    -0.15756;1.00000
1279.87;  126.06;    -0.15704;1.00000
1280.98;  126.17;    -0.15640;1.00000
1282.08;  126.28;    -0.15583;1.00000
1283.18;  126.39;    -0.15521;1.00000
1284.29;  126.5;    -0.15486;1.00000
1285.38;  126.61;    -0.15443;1.00000
1286.48;  126.72;    -0.15416;1.00000
1287.6;  126.83;    -0.15380;1.00000
1288.7;  126.94;    -0.15323;1.00000
1289.79;  127.05;    -0.15276;1.00000
1290.89;  127.16;    -0.15219;1.00000
1291.98;  127.27;    -0.15168;1.00000
1293.07;  127.38;    -0.15105;1.00000
1294.17;  127.49;    -0.15062;1.00000
1295.26;  127.6;    -0.15003;1.00000
1296.38;  127.71;    -0.14957;1.00000
1297.46;  127.82;    -0.14902;1.00000
1298.57;  127.93;    -0.14854;1.00000
1299.28;  128;    -0.14824;1.00000