File: charts/20230801/DTA/INSATURADAS/ZCFA.txt
#FILE:                       ;DTA Danilo Zeolita.ngb-dd9
#FORMAT:                     ;NETZSCH5
#IDENTITY:                   ;Danilo
#DECIMAL:                    ;POINT
#SEPARATOR:                  ;SEMICOLON
#MTYPE:                      ;DTA
#INSTRUMENT:                 ;NETZSCH DSC 404F3
#PROJECT:                    ;Danilo
#DATE/TIME:                  ;10/05/2022 09:40:23
#CORR. FILE:                 ;DTA_Branco_VidroZeolita.ngb-bd9
#LABORATORY:                 ;DSC/DTA
#OPERATOR:                   ;Eguiberto
#REMARK:                     ;Danilo
#SAMPLE:                     ;Zeolita
#SAMPLE MASS /mg:            ;110.10
#MATERIAL:                   ;Vidro + Zeolita
#REFERENCE:                  ;Empty
#REFERENCE MASS /mg:         ;0
#TYPE OF CRUCIBLE:           ;DTA/TG crucible Al2O3
#SAMPLE CRUCIBLE MASS /mg:   ;1343.6
#REFERENCE CRUCIBLE MASS /mg:;1342.95
#CORR. CODE:                 ;020
#EXO:                        ;-1
#RANGE:                      ;20/10.0(K/min)/1300
#SEGMENT:                    ;S1/1

##Temp./øC;Time/min;DTA/(uV/mg);Sensit./(uV/mW)
  18.46800;0.0000e+000; 3.3955e-004;1.00000
  18.46300;    0.11000; 3.9498e-004;1.00000
  18.45400;    0.22000; 4.3656e-004;1.00000
  18.47900;    0.33000; 3.7419e-004;1.00000
  18.50300;    0.44000; 3.7419e-004;1.00000
  18.53000;    0.55000; 3.9498e-004;1.00000
  18.60600;    0.66000; 4.5042e-004;1.00000
  18.66200;    0.77000; 4.7814e-004;1.00000
  18.74700;    0.88000; 4.8507e-004;1.00000
  18.85800;    0.99000; 5.1278e-004;1.00000
  19.00700;    1.10000; 6.0287e-004;1.00000
  19.16000;    1.21000; 7.4839e-004;1.00000
  19.35200;    1.32000; 8.8698e-004;1.00000
  19.53600;    1.43000; 1.0325e-003;1.00000
  19.78200;    1.54000; 1.2958e-003;1.00000
  20.05000;    1.65000; 1.5522e-003;1.00000
  20.31300;    1.76000; 1.8918e-003;1.00000
  20.61600;    1.87000; 2.2590e-003;1.00000
  20.91700;    1.98000; 2.7649e-003;1.00000
  21.27300;    2.09000; 3.1876e-003;1.00000
  21.64200;    2.20000; 3.6380e-003;1.00000
  22.01200;    2.31000; 4.2409e-003;1.00000
  22.42400;    2.42000; 4.8022e-003;1.00000
  22.84400;    2.53000; 5.3496e-003;1.00000
  23.29000;    2.64000; 5.9455e-003;1.00000
  23.73400;    2.75000; 6.5137e-003;1.00000
  24.22000;    2.86000; 7.0196e-003;1.00000
  24.72900;    2.97000; 7.5462e-003;1.00000
  25.26900;    3.08000; 8.1283e-003;1.00000
  25.82000;    3.19000; 8.5995e-003;1.00000
  26.40200;    3.30000; 9.0014e-003;1.00000
  26.99200;    3.41000; 9.5350e-003;1.00000
  27.64800;    3.52000; 9.9508e-003;1.00000
  28.30600;    3.63000; 1.0318e-002;1.00000
  28.97700;    3.74000; 1.0748e-002;1.00000
  29.71300;    3.85000; 1.1025e-002;1.00000
  30.44500;    3.96000; 1.1288e-002;1.00000
  31.21400;    4.07000; 1.1725e-002;1.00000
  31.99400;    4.18000; 1.1933e-002;1.00000
  32.83000;    4.29000; 1.2231e-002;1.00000
  33.68200;    4.40000; 1.2480e-002;1.00000
  34.55700;    4.51000; 1.2702e-002;1.00000
  35.46500;    4.62000; 1.2951e-002;1.00000
  36.37500;    4.73000; 1.3173e-002;1.00000
  37.33700;    4.84000; 1.3506e-002;1.00000
  38.32800;    4.95000; 1.3686e-002;1.00000
  39.33900;    5.06000; 1.3811e-002;1.00000
  40.38300;    5.17000; 1.4157e-002;1.00000
  41.42200;    5.28000; 1.4413e-002;1.00000
  42.51100;    5.39000; 1.4607e-002;1.00000
  43.62900;    5.50000; 1.4781e-002;1.00000
  44.75500;    5.61000; 1.4947e-002;1.00000
  45.90300;    5.72000; 1.5217e-002;1.00000
  47.06900;    5.83000; 1.5418e-002;1.00000
  48.27900;    5.94000; 1.5668e-002;1.00000
  49.49200;    6.05000; 1.5910e-002;1.00000
  50.72700;    6.16000; 1.6125e-002;1.00000
  51.98500;    6.27000; 1.6354e-002;1.00000
  53.28700;    6.38000; 1.6672e-002;1.00000
  54.58500;    6.49000; 1.6936e-002;1.00000
  55.91900;    6.60000; 1.7310e-002;1.00000
  57.26400;    6.71000; 1.7753e-002;1.00000
  58.61200;    6.82000; 1.8259e-002;1.00000
  60.00300;    6.93000; 1.8682e-002;1.00000
  61.41000;    7.04000; 1.9229e-002;1.00000
  62.85400;    7.15000; 1.9846e-002;1.00000
  64.28900;    7.26000; 2.0504e-002;1.00000
  65.71800;    7.37000; 2.1329e-002;1.00000
  67.18500;    7.48000; 2.2195e-002;1.00000
  68.67100;    7.59000; 2.2978e-002;1.00000
  70.16100;    7.70000; 2.3935e-002;1.00000
  71.64800;    7.81000; 2.5029e-002;1.00000
  73.18000;    7.92000; 2.5937e-002;1.00000
  74.68400;    8.03000; 2.7101e-002;1.00000
  76.22200;    8.14000; 2.8224e-002;1.00000
  77.74600;    8.25000; 2.9229e-002;1.00000
  79.30900;    8.36000; 3.0531e-002;1.00000
  80.86000;    8.47000; 3.1737e-002;1.00000
  82.42200;    8.58000; 3.3026e-002;1.00000
  84.01600;    8.69000; 3.4052e-002;1.00000
  85.58700;    8.80000; 3.5382e-002;1.00000
  87.17900;    8.91000; 3.6622e-002;1.00000
  88.78500;    9.02000; 3.7849e-002;1.00000
  90.40500;    9.13000; 3.9166e-002;1.00000
  92.01600;    9.24000; 4.0461e-002;1.00000
  93.64200;    9.35000; 4.2000e-002;1.00000
  95.26100;    9.46000; 4.3469e-002;1.00000
  96.88200;    9.57000; 4.5070e-002;1.00000
  98.51800;    9.68000; 4.6837e-002;1.00000
 100.146;    9.79000; 4.9006e-002;1.00000
 101.781;    9.90000; 5.1583e-002;1.00000
 103.411;   10.01000; 5.4230e-002;1.00000
 105.027;   10.12000; 5.6198e-002;1.00000
 106.661;   10.23000; 5.7986e-002;1.00000
 108.286;   10.34000; 5.9462e-002;1.00000
 109.909;   10.45000; 6.0952e-002;1.00000
 111.522;   10.56000; 6.2483e-002;1.00000
 113.149;   10.67000; 6.3911e-002;1.00000
 114.735;   10.78000; 6.5255e-002;1.00000
 116.35;   10.89000; 6.6482e-002;1.00000
 117.964;   11.00000; 6.7514e-002;1.00000
 119.541;   11.11000; 6.8374e-002;1.00000
 121.141;   11.22000; 6.8914e-002;1.00000
 122.738;   11.33000; 6.9205e-002;1.00000
 124.31;   11.44000; 6.9163e-002;1.00000
 125.895;   11.55000; 6.8969e-002;1.00000
 127.476;   11.66000; 6.8831e-002;1.00000
 129.05;   11.77000; 6.8283e-002;1.00000
 130.632;   11.88000; 6.7611e-002;1.00000
 132.182;   11.99000; 6.6932e-002;1.00000
 133.747;   12.10000; 6.6115e-002;1.00000
 135.282;   12.21000; 6.5158e-002;1.00000
 136.824;   12.32000; 6.4056e-002;1.00000
 138.369;   12.43000; 6.3017e-002;1.00000
 139.9;   12.54000; 6.1763e-002;1.00000
 141.433;   12.65000; 6.0647e-002;1.00000
 142.944;   12.76000; 5.9303e-002;1.00000
 144.45;   12.87000; 5.7986e-002;1.00000
 145.962;   12.98000; 5.6628e-002;1.00000
 147.45;   13.09000; 5.5249e-002;1.00000
 148.938;   13.20000; 5.3912e-002;1.00000
 150.404;   13.31000; 5.2484e-002;1.00000
 151.88;   13.42000; 5.1043e-002;1.00000
 153.333;   13.53000; 4.9574e-002;1.00000
 154.782;   13.64000; 4.8125e-002;1.00000
 156.221;   13.75000; 4.6594e-002;1.00000
 157.646;   13.86000; 4.5028e-002;1.00000
 159.055;   13.97000; 4.3642e-002;1.00000
 160.46;   14.08000; 4.2118e-002;1.00000
 161.864;   14.19000; 4.0607e-002;1.00000
 163.256;   14.30000; 3.9152e-002;1.00000
 164.625;   14.41000; 3.7697e-002;1.00000
 165.99;   14.52000; 3.6228e-002;1.00000
 167.369;   14.63000; 3.4696e-002;1.00000
 168.716;   14.74000; 3.3179e-002;1.00000
 170.064;   14.85000; 3.1744e-002;1.00000
 171.393;   14.96000; 3.0268e-002;1.00000
 172.726;   15.07000; 2.8820e-002;1.00000
 174.046;   15.18000; 2.7434e-002;1.00000
 175.333;   15.29000; 2.5896e-002;1.00000
 176.638;   15.40000; 2.4475e-002;1.00000
 177.933;   15.51000; 2.3020e-002;1.00000
 179.224;   15.62000; 2.1516e-002;1.00000
 180.485;   15.73000; 2.0019e-002;1.00000
 181.748;   15.84000; 1.8419e-002;1.00000
 183.01;   15.95000; 1.6880e-002;1.00000
 184.265;   16.06000; 1.5425e-002;1.00000
 185.514;   16.17000; 1.3866e-002;1.00000
 186.726;   16.28000; 1.2203e-002;1.00000
 187.952;   16.39000; 1.0554e-002;1.00000
 189.177;   16.50000; 8.9737e-003;1.00000
 190.394;   16.61000; 7.1443e-003;1.00000
 191.595;   16.72000; 5.5090e-003;1.00000
 192.795;   16.83000; 3.5826e-003;1.00000
 193.986;   16.94000; 1.6354e-003;1.00000
 195.158;   17.05000;-2.4946e-004;1.00000
 196.342;   17.16000;-2.2313e-003;1.00000
 197.52;   17.27000;-4.2894e-003;1.00000
 198.688;   17.38000;-6.3405e-003;1.00000
 199.834;   17.49000;-8.5233e-003;1.00000
 200.978;   17.60000;-1.0852e-002;1.00000
 202.125;   17.71000;-1.3145e-002;1.00000
 203.256;   17.82000;-1.5543e-002;1.00000
 204.39;   17.93000;-1.8079e-002;1.00000
 205.519;   18.04000;-2.0511e-002;1.00000
 206.618;   18.15000;-2.3269e-002;1.00000
 207.744;   18.26000;-2.5972e-002;1.00000
 208.855;   18.37000;-2.8778e-002;1.00000
 209.959;   18.48000;-3.1668e-002;1.00000
 211.069;   18.59000;-3.4641e-002;1.00000
 212.161;   18.70000;-3.7801e-002;1.00000
 213.242;   18.81000;-4.0912e-002;1.00000
 214.334;   18.92000;-4.4120e-002;1.00000
 215.413;   19.03000;-4.7536e-002;1.00000
 216.494;   19.14000;-5.0842e-002;1.00000
 217.569;   19.25000;-5.4417e-002;1.00000
 218.643;   19.36000;-5.8028e-002;1.00000
 219.712;   19.47000;-6.1700e-002;1.00000
 220.768;   19.58000;-6.5422e-002;1.00000
 221.845;   19.69000;-6.9219e-002;1.00000
 222.889;   19.80000;-7.3044e-002;1.00000
 223.943;   19.91000;-7.7008e-002;1.00000
 224.993;   20.02000;-8.0964e-002;1.00000
 226.056;   20.13000;-8.5032e-002;1.00000
 227.094;   20.24000;-8.9169e-002;1.00000
 228.157;   20.35000;-9.3348e-002;1.00000
 229.19;   20.46000;-9.7540e-002;1.00000
 230.243;   20.57000;    -0.10182;1.00000
 231.28;   20.68000;    -0.10606;1.00000
 232.331;   20.79000;    -0.11048;1.00000
 233.364;   20.90000;    -0.11479;1.00000
 234.407;   21.01000;    -0.11915;1.00000
 235.44;   21.12000;    -0.12349;1.00000
 236.456;   21.23000;    -0.12800;1.00000
 237.512;   21.34000;    -0.13240;1.00000
 238.529;   21.45000;    -0.13682;1.00000
 239.568;   21.56000;    -0.14117;1.00000
 240.593;   21.67000;    -0.14564;1.00000
 241.638;   21.78000;    -0.15015;1.00000
 242.661;   21.89000;    -0.15450;1.00000
 243.682;   22.00000;    -0.15883;1.00000
 244.72;   22.11000;    -0.16327;1.00000
 245.758;   22.22000;    -0.16760;1.00000
 246.791;   22.33000;    -0.17193;1.00000
 247.82;   22.44000;    -0.17629;1.00000
 248.852;   22.55000;    -0.18047;1.00000
 249.876;   22.66000;    -0.18481;1.00000
 250.91;   22.77000;    -0.18891;1.00000
 251.933;   22.88000;    -0.19308;1.00000
 252.969;   22.99000;    -0.19710;1.00000
 253.997;   23.10000;    -0.20100;1.00000
 255.03;   23.21000;    -0.20495;1.00000
 256.057;   23.32000;    -0.20885;1.00000
 257.105;   23.43000;    -0.21279;1.00000
 258.123;   23.54000;    -0.21666;1.00000
 259.163;   23.65000;    -0.22033;1.00000
 260.197;   23.76000;    -0.22406;1.00000
 261.229;   23.87000;    -0.22770;1.00000
 262.258;   23.98000;    -0.23130;1.00000
 263.296;   24.09000;    -0.23479;1.00000
 264.335;   24.20000;    -0.23828;1.00000
 265.368;   24.31000;    -0.24174;1.00000
 266.405;   24.42000;    -0.24511;1.00000
 267.447;   24.53000;    -0.24849;1.00000
 268.477;   24.64000;    -0.25176;1.00000
 269.529;   24.75000;    -0.25501;1.00000
 270.572;   24.86000;    -0.25817;1.00000
 271.619;   24.97000;    -0.26131;1.00000
 272.642;   25.08000;    -0.26446;1.00000
 273.687;   25.19000;    -0.26750;1.00000
 274.734;   25.30000;    -0.27056;1.00000
 275.77;   25.41000;    -0.27354;1.00000
 276.809;   25.52000;    -0.27650;1.00000
 277.865;   25.63000;    -0.27931;1.00000
 278.894;   25.74000;    -0.28216;1.00000
 279.952;   25.85000;    -0.28498;1.00000
 280.998;   25.96000;    -0.28767;1.00000
 282.038;   26.07000;    -0.29055;1.00000
 283.089;   26.18000;    -0.29313;1.00000
 284.144;   26.29000;    -0.29571;1.00000
 285.181;   26.40000;    -0.29825;1.00000
 286.236;   26.51000;    -0.30081;1.00000
 287.297;   26.62000;    -0.30326;1.00000
 288.347;   26.73000;    -0.30567;1.00000
 289.398;   26.84000;    -0.30802;1.00000
 290.451;   26.95000;    -0.31039;1.00000
 291.511;   27.06000;    -0.31266;1.00000
 292.564;   27.17000;    -0.31479;1.00000
 293.627;   27.28000;    -0.31709;1.00000
 294.676;   27.39000;    -0.31917;1.00000
 295.734;   27.50000;    -0.32140;1.00000
 296.801;   27.61000;    -0.32350;1.00000
 297.852;   27.72000;    -0.32549;1.00000
 298.92;   27.83000;    -0.32751;1.00000
 299.975;   27.94000;    -0.32945;1.00000
 301.054;   28.05000;    -0.33136;1.00000
 302.104;   28.16000;    -0.33334;1.00000
 303.178;   28.27000;    -0.33519;1.00000
 304.247;   28.38000;    -0.33701;1.00000
 305.299;   28.49000;    -0.33878;1.00000
 306.378;   28.60000;    -0.34054;1.00000
 307.432;   28.71000;    -0.34226;1.00000
 308.501;   28.82000;    -0.34400;1.00000
 309.586;   28.93000;    -0.34575;1.00000
 310.644;   29.04000;    -0.34738;1.00000
 311.709;   29.15000;    -0.34901;1.00000
 312.792;   29.26000;    -0.35065;1.00000
 313.852;   29.37000;    -0.35223;1.00000
 314.945;   29.48000;    -0.35370;1.00000
 316.005;   29.59000;    -0.35523;1.00000
 317.081;   29.70000;    -0.35677;1.00000
 318.16;   29.81000;    -0.35822;1.00000
 319.23;   29.92000;    -0.35967;1.00000
 320.311;   30.03000;    -0.36112;1.00000
 321.379;   30.14000;    -0.36248;1.00000
 322.46;   30.25000;    -0.36393;1.00000
 323.532;   30.36000;    -0.36530;1.00000
 324.607;   30.47000;    -0.36661;1.00000
 325.689;   30.58000;    -0.36797;1.00000
 326.775;   30.69000;    -0.36927;1.00000
 327.851;   30.80000;    -0.37064;1.00000
 328.941;   30.91000;    -0.37187;1.00000
 330.022;   31.02000;    -0.37314;1.00000
 331.096;   31.13000;    -0.37448;1.00000
 332.193;   31.24000;    -0.37565;1.00000
 333.259;   31.35000;    -0.37694;1.00000
 334.344;   31.46000;    -0.37816;1.00000
 335.433;   31.57000;    -0.37931;1.00000
 336.513;   31.68000;    -0.38045;1.00000
 337.595;   31.79000;    -0.38156;1.00000
 338.687;   31.90000;    -0.38261;1.00000
 339.76;   32.01000;    -0.38378;1.00000
 340.843;   32.12000;    -0.38491;1.00000
 341.93;   32.23000;    -0.38595;1.00000
 343.02;   32.34000;    -0.38703;1.00000
 344.114;   32.45000;    -0.38814;1.00000
 345.188;   32.56000;    -0.38917;1.00000
 346.272;   32.67000;    -0.39022;1.00000
 347.361;   32.78000;    -0.39132;1.00000
 348.456;   32.89000;    -0.39232;1.00000
 349.535;   33.00000;    -0.39331;1.00000
 350.618;   33.11000;    -0.39423;1.00000
 351.708;   33.22000;    -0.39530;1.00000
 352.791;   33.33000;    -0.39637;1.00000
 353.886;   33.44000;    -0.39726;1.00000
 354.981;   33.55000;    -0.39830;1.00000
 356.062;   33.66000;    -0.39920;1.00000
 357.147;   33.77000;    -0.40005;1.00000
 358.229;   33.88000;    -0.40100;1.00000
 359.318;   33.99000;    -0.40196;1.00000
 360.411;   34.10000;    -0.40279;1.00000
 361.496;   34.21000;    -0.40356;1.00000
 362.59;   34.32000;    -0.40453;1.00000
 363.679;   34.43000;    -0.40544;1.00000
 364.764;   34.54000;    -0.40626;1.00000
 365.847;   34.65000;    -0.40711;1.00000
 366.943;   34.76000;    -0.40798;1.00000
 368.026;   34.87000;    -0.40868;1.00000
 369.113;   34.98000;    -0.40947;1.00000
 370.205;   35.09000;    -0.41031;1.00000
 371.302;   35.20000;    -0.41111;1.00000
 372.37;   35.31000;    -0.41191;1.00000
 373.465;   35.42000;    -0.41261;1.00000
 374.565;   35.53000;    -0.41339;1.00000
 375.656;   35.64000;    -0.41420;1.00000
 376.747;   35.75000;    -0.41493;1.00000
 377.827;   35.86000;    -0.41571;1.00000
 378.919;   35.97000;    -0.41651;1.00000
 380.004;   36.08000;    -0.41725;1.00000
 381.097;   36.19000;    -0.41802;1.00000
 382.186;   36.30000;    -0.41878;1.00000
 383.279;   36.41000;    -0.41939;1.00000
 384.368;   36.52000;    -0.42027;1.00000
 385.458;   36.63000;    -0.42098;1.00000
 386.546;   36.74000;    -0.42182;1.00000
 387.639;   36.85000;    -0.42246;1.00000
 388.719;   36.96000;    -0.42318;1.00000
 389.814;   37.07000;    -0.42391;1.00000
 390.915;   37.18000;    -0.42468;1.00000
 391.995;   37.29000;    -0.42541;1.00000
 393.081;   37.40000;    -0.42620;1.00000
 394.167;   37.51000;    -0.42696;1.00000
 395.257;   37.62000;    -0.42772;1.00000
 396.357;   37.73000;    -0.42844;1.00000
 397.453;   37.84000;    -0.42917;1.00000
 398.536;   37.95000;    -0.42987;1.00000
 399.63;   38.06000;    -0.43057;1.00000
 400.728;   38.17000;    -0.43121;1.00000
 401.813;   38.28000;    -0.43205;1.00000
 402.893;   38.39000;    -0.43272;1.00000
 403.995;   38.50000;    -0.43337;1.00000
 405.075;   38.61000;    -0.43401;1.00000
 406.164;   38.72000;    -0.43462;1.00000
 407.262;   38.83000;    -0.43531;1.00000
 408.354;   38.94000;    -0.43603;1.00000
 409.439;   39.05000;    -0.43663;1.00000
 410.531;   39.16000;    -0.43734;1.00000
 411.623;   39.27000;    -0.43793;1.00000
 412.729;   39.38000;    -0.43862;1.00000
 413.811;   39.49000;    -0.43924;1.00000
 414.894;   39.60000;    -0.43984;1.00000
 416;   39.71000;    -0.44045;1.00000
 417.089;   39.82000;    -0.44104;1.00000
 418.165;   39.93000;    -0.44166;1.00000
 419.272;   40.04000;    -0.44223;1.00000
 420.367;   40.15000;    -0.44280;1.00000
 421.451;   40.26000;    -0.44334;1.00000
 422.546;   40.37000;    -0.44394;1.00000
 423.647;   40.48000;    -0.44458;1.00000
 424.73;   40.59000;    -0.44503;1.00000
 425.813;   40.70000;    -0.44564;1.00000
 426.906;   40.81000;    -0.44607;1.00000
 427.994;   40.92000;    -0.44664;1.00000
 429.101;   41.03000;    -0.44712;1.00000
 430.19;   41.14000;    -0.44764;1.00000
 431.289;   41.25000;    -0.44813;1.00000
 432.384;   41.36000;    -0.44862;1.00000
 433.474;   41.47000;    -0.44922;1.00000
 434.576;   41.58000;    -0.44970;1.00000
 435.66;   41.69000;    -0.45022;1.00000
 436.752;   41.80000;    -0.45068;1.00000
 437.851;   41.91000;    -0.45119;1.00000
 438.951;   42.02000;    -0.45162;1.00000
 440.033;   42.13000;    -0.45215;1.00000
 441.122;   42.24000;    -0.45257;1.00000
 442.22;   42.35000;    -0.45303;1.00000
 443.309;   42.46000;    -0.45350;1.00000
 444.397;   42.57000;    -0.45393;1.00000
 445.5;   42.68000;    -0.45438;1.00000
 446.591;   42.79000;    -0.45493;1.00000
 447.679;   42.90000;    -0.45534;1.00000
 448.758;   43.01000;    -0.45587;1.00000
 449.863;   43.12000;    -0.45630;1.00000
 450.953;   43.23000;    -0.45670;1.00000
 452.046;   43.34000;    -0.45723;1.00000
 453.144;   43.45000;    -0.45774;1.00000
 454.234;   43.56000;    -0.45816;1.00000
 455.314;   43.67000;    -0.45864;1.00000
 456.415;   43.78000;    -0.45908;1.00000
 457.515;   43.89000;    -0.45954;1.00000
 458.601;   44.00000;    -0.45994;1.00000
 459.692;   44.11000;    -0.46045;1.00000
 460.777;   44.22000;    -0.46081;1.00000
 461.882;   44.33000;    -0.46130;1.00000
 462.978;   44.44000;    -0.46184;1.00000
 464.068;   44.55000;    -0.46233;1.00000
 465.162;   44.66000;    -0.46279;1.00000
 466.259;   44.77000;    -0.46313;1.00000
 467.352;   44.88000;    -0.46357;1.00000
 468.442;   44.99000;    -0.46386;1.00000
 469.538;   45.10000;    -0.46435;1.00000
 470.633;   45.21000;    -0.46491;1.00000
 471.719;   45.32000;    -0.46532;1.00000
 472.819;   45.43000;    -0.46575;1.00000
 473.905;   45.54000;    -0.46620;1.00000
 475.011;   45.65000;    -0.46672;1.00000
 476.095;   45.76000;    -0.46709;1.00000
 477.188;   45.87000;    -0.46759;1.00000
 478.287;   45.98000;    -0.46802;1.00000
 479.398;   46.09000;    -0.46835;1.00000
 480.477;   46.20000;    -0.46882;1.00000
 481.565;   46.31000;    -0.46927;1.00000
 482.664;   46.42000;    -0.46964;1.00000
 483.755;   46.53000;    -0.47006;1.00000
 484.844;   46.64000;    -0.47041;1.00000
 485.948;   46.75000;    -0.47080;1.00000
 487.044;   46.86000;    -0.47124;1.00000
 488.14;   46.97000;    -0.47166;1.00000
 489.232;   47.08000;    -0.47200;1.00000
 490.327;   47.19000;    -0.47243;1.00000
 491.418;   47.30000;    -0.47283;1.00000
 492.522;   47.41000;    -0.47318;1.00000
 493.611;   47.52000;    -0.47346;1.00000
 494.715;   47.63000;    -0.47383;1.00000
 495.812;   47.74000;    -0.47421;1.00000
 496.896;   47.85000;    -0.47453;1.00000
 497.999;   47.96000;    -0.47490;1.00000
 499.084;   48.07000;    -0.47523;1.00000
 500.189;   48.18000;    -0.47556;1.00000
 501.281;   48.29000;    -0.47592;1.00000
 502.375;   48.40000;    -0.47622;1.00000
 503.468;   48.51000;    -0.47660;1.00000
 504.577;   48.62000;    -0.47689;1.00000
 505.669;   48.73000;    -0.47728;1.00000
 506.757;   48.84000;    -0.47765;1.00000
 507.854;   48.95000;    -0.47798;1.00000
 508.958;   49.06000;    -0.47830;1.00000
 510.062;   49.17000;    -0.47857;1.00000
 511.149;   49.28000;    -0.47884;1.00000
 512.237;   49.39000;    -0.47911;1.00000
 513.343;   49.50000;    -0.47934;1.00000
 514.432;   49.61000;    -0.47958;1.00000
 515.545;   49.72000;    -0.47988;1.00000
 516.63;   49.83000;    -0.48015;1.00000
 517.714;   49.94000;    -0.48045;1.00000
 518.815;   50.05000;    -0.48069;1.00000
 519.911;   50.16000;    -0.48102;1.00000
 520.998;   50.27000;    -0.48128;1.00000
 522.104;   50.38000;    -0.48167;1.00000
 523.204;   50.49000;    -0.48192;1.00000
 524.304;   50.60000;    -0.48224;1.00000
 525.398;   50.71000;    -0.48251;1.00000
 526.484;   50.82000;    -0.48274;1.00000
 527.58;   50.93000;    -0.48301;1.00000
 528.671;   51.04000;    -0.48337;1.00000
 529.765;   51.15000;    -0.48367;1.00000
 530.861;   51.26000;    -0.48396;1.00000
 531.962;   51.37000;    -0.48421;1.00000
 533.063;   51.48000;    -0.48449;1.00000
 534.151;   51.59000;    -0.48479;1.00000
 535.247;   51.70000;    -0.48495;1.00000
 536.345;   51.81000;    -0.48520;1.00000
 537.431;   51.92000;    -0.48550;1.00000
 538.54;   52.03000;    -0.48573;1.00000
 539.636;   52.14000;    -0.48590;1.00000
 540.74;   52.25000;    -0.48620;1.00000
 541.832;   52.36000;    -0.48644;1.00000
 542.929;   52.47000;    -0.48665;1.00000
 544.008;   52.58000;    -0.48694;1.00000
 545.115;   52.69000;    -0.48712;1.00000
 546.205;   52.80000;    -0.48743;1.00000
 547.304;   52.91000;    -0.48764;1.00000
 548.403;   53.02000;    -0.48784;1.00000
 549.499;   53.13000;    -0.48817;1.00000
 550.593;   53.24000;    -0.48846;1.00000
 551.693;   53.35000;    -0.48869;1.00000
 552.787;   53.46000;    -0.48893;1.00000
 553.892;   53.57000;    -0.48920;1.00000
 554.981;   53.68000;    -0.48953;1.00000
 556.079;   53.79000;    -0.48977;1.00000
 557.18;   53.90000;    -0.49010;1.00000
 558.275;   54.01000;    -0.49038;1.00000
 559.384;   54.12000;    -0.49064;1.00000
 560.473;   54.23000;    -0.49088;1.00000
 561.573;   54.34000;    -0.49105;1.00000
 562.671;   54.45000;    -0.49126;1.00000
 563.774;   54.56000;    -0.49148;1.00000
 564.865;   54.67000;    -0.49175;1.00000
 565.975;   54.78000;    -0.49202;1.00000
 567.067;   54.89000;    -0.49223;1.00000
 568.17;   55.00000;    -0.49246;1.00000
 569.264;   55.11000;    -0.49263;1.00000
 570.37;   55.22000;    -0.49286;1.00000
 571.458;   55.33000;    -0.49304;1.00000
 572.567;   55.44000;    -0.49332;1.00000
 573.653;   55.55000;    -0.49346;1.00000
 574.751;   55.66000;    -0.49373;1.00000
 575.856;   55.77000;    -0.49402;1.00000
 576.954;   55.88000;    -0.49425;1.00000
 578.054;   55.99000;    -0.49441;1.00000
 579.153;   56.10000;    -0.49464;1.00000
 580.247;   56.21000;    -0.49484;1.00000
 581.351;   56.32000;    -0.49506;1.00000
 582.447;   56.43000;    -0.49527;1.00000
 583.541;   56.54000;    -0.49542;1.00000
 584.63;   56.65000;    -0.49566;1.00000
 585.731;   56.76000;    -0.49586;1.00000
 586.842;   56.87000;    -0.49606;1.00000
 587.935;   56.98000;    -0.49626;1.00000
 589.036;   57.09000;    -0.49642;1.00000
 590.134;   57.20000;    -0.49667;1.00000
 591.228;   57.31000;    -0.49683;1.00000
 592.312;   57.42000;    -0.49703;1.00000
 593.429;   57.53000;    -0.49722;1.00000
 594.514;   57.64000;    -0.49744;1.00000
 595.617;   57.75000;    -0.49753;1.00000
 596.728;   57.86000;    -0.49775;1.00000
 597.822;   57.97000;    -0.49783;1.00000
 598.909;   58.08000;    -0.49793;1.00000
 600.006;   58.19000;    -0.49809;1.00000
 601.116;   58.30000;    -0.49825;1.00000
 602.213;   58.41000;    -0.49843;1.00000
 603.317;   58.52000;    -0.49859;1.00000
 604.405;   58.63000;    -0.49876;1.00000
 605.492;   58.74000;    -0.49893;1.00000
 606.604;   58.85000;    -0.49904;1.00000
 607.711;   58.96000;    -0.49917;1.00000
 608.804;   59.07000;    -0.49937;1.00000
 609.912;   59.18000;    -0.49959;1.00000
 611.007;   59.29000;    -0.49970;1.00000
 612.106;   59.40000;    -0.49979;1.00000
 613.204;   59.51000;    -0.49996;1.00000
 614.302;   59.62000;    -0.50005;1.00000
 615.394;   59.73000;    -0.50018;1.00000
 616.489;   59.84000;    -0.50027;1.00000
 617.592;   59.95000;    -0.50048;1.00000
 618.696;   60.06000;    -0.50068;1.00000
 619.786;   60.17000;    -0.50073;1.00000
 620.89;   60.28000;    -0.50091;1.00000
 621.985;   60.39000;    -0.50102;1.00000
 623.081;   60.50000;    -0.50127;1.00000
 624.179;   60.61000;    -0.50131;1.00000
 625.28;   60.72000;    -0.50145;1.00000
 626.365;   60.83000;    -0.50164;1.00000
 627.469;   60.94000;    -0.50175;1.00000
 628.568;   61.05000;    -0.50190;1.00000
 629.668;   61.16000;    -0.50207;1.00000
 630.777;   61.27000;    -0.50227;1.00000
 631.868;   61.38000;    -0.50245;1.00000
 632.972;   61.49000;    -0.50262;1.00000
 634.067;   61.60000;    -0.50280;1.00000
 635.176;   61.71000;    -0.50301;1.00000
 636.27;   61.82000;    -0.50304;1.00000
 637.373;   61.93000;    -0.50316;1.00000
 638.467;   62.04000;    -0.50348;1.00000
 639.565;   62.15000;    -0.50357;1.00000
 640.658;   62.26000;    -0.50378;1.00000
 641.767;   62.37000;    -0.50398;1.00000
 642.865;   62.48000;    -0.50416;1.00000
 643.961;   62.59000;    -0.50439;1.00000
 645.069;   62.70000;    -0.50454;1.00000
 646.175;   62.81000;    -0.50470;1.00000
 647.267;   62.92000;    -0.50497;1.00000
 648.368;   63.03000;    -0.50518;1.00000
 649.474;   63.14000;    -0.50540;1.00000
 650.573;   63.25000;    -0.50564;1.00000
 651.671;   63.36000;    -0.50591;1.00000
 652.771;   63.47000;    -0.50616;1.00000
 653.865;   63.58000;    -0.50633;1.00000
 654.969;   63.69000;    -0.50658;1.00000
 656.074;   63.80000;    -0.50684;1.00000
 657.166;   63.91000;    -0.50707;1.00000
 658.265;   64.02000;    -0.50741;1.00000
 659.369;   64.13000;    -0.50770;1.00000
 660.461;   64.24000;    -0.50800;1.00000
 661.571;   64.35000;    -0.50825;1.00000
 662.651;   64.46000;    -0.50861;1.00000
 663.765;   64.57000;    -0.50904;1.00000
 664.865;   64.68000;    -0.50926;1.00000
 665.97;   64.79000;    -0.50962;1.00000
 667.07;   64.90000;    -0.51013;1.00000
 668.166;   65.01000;    -0.51045;1.00000
 669.274;   65.12000;    -0.51099;1.00000
 670.376;   65.23000;    -0.51153;1.00000
 671.469;   65.34000;    -0.51208;1.00000
 672.572;   65.45000;    -0.51275;1.00000
 673.668;   65.56000;    -0.51324;1.00000
 674.771;   65.67000;    -0.51391;1.00000
 675.868;   65.78000;    -0.51460;1.00000
 676.976;   65.89000;    -0.51529;1.00000
 678.087;   66.00000;    -0.51603;1.00000
 679.182;   66.11000;    -0.51696;1.00000
 680.278;   66.22000;    -0.51774;1.00000
 681.389;   66.33000;    -0.51869;1.00000
 682.489;   66.44000;    -0.51961;1.00000
 683.583;   66.55000;    -0.52062;1.00000
 684.69;   66.66000;    -0.52167;1.00000
 685.787;   66.77000;    -0.52273;1.00000
 686.885;   66.88000;    -0.52398;1.00000
 687.974;   66.99000;    -0.52519;1.00000
 689.082;   67.10000;    -0.52643;1.00000
 690.183;   67.21000;    -0.52760;1.00000
 691.302;   67.32000;    -0.52869;1.00000
 692.393;   67.43000;    -0.52999;1.00000
 693.489;   67.54000;    -0.53116;1.00000
 694.589;   67.65000;    -0.53230;1.00000
 695.683;   67.76000;    -0.53348;1.00000
 696.793;   67.87000;    -0.53444;1.00000
 697.89;   67.98000;    -0.53553;1.00000
 698.993;   68.09000;    -0.53651;1.00000
 700.088;   68.20000;    -0.53738;1.00000
 701.194;   68.31000;    -0.53820;1.00000
 702.298;   68.42000;    -0.53889;1.00000
 703.394;   68.53000;    -0.53947;1.00000
 704.501;   68.64000;    -0.54002;1.00000
 705.609;   68.75000;    -0.54039;1.00000
 706.696;   68.86000;    -0.54067;1.00000
 707.797;   68.97000;    -0.54092;1.00000
 708.901;   69.08000;    -0.54104;1.00000
 710.001;   69.19000;    -0.54091;1.00000
 711.107;   69.30000;    -0.54081;1.00000
 712.196;   69.41000;    -0.54058;1.00000
 713.301;   69.52000;    -0.54030;1.00000
 714.394;   69.63000;    -0.53995;1.00000
 715.495;   69.74000;    -0.53940;1.00000
 716.602;   69.85000;    -0.53891;1.00000
 717.699;   69.96000;    -0.53819;1.00000
 718.794;   70.07000;    -0.53744;1.00000
 719.896;   70.18000;    -0.53664;1.00000
 720.998;   70.29000;    -0.53573;1.00000
 722.089;   70.40000;    -0.53477;1.00000
 723.191;   70.51000;    -0.53373;1.00000
 724.292;   70.62000;    -0.53267;1.00000
 725.392;   70.73000;    -0.53150;1.00000
 726.492;   70.84000;    -0.53038;1.00000
 727.593;   70.95000;    -0.52912;1.00000
 728.681;   71.06000;    -0.52795;1.00000
 729.793;   71.17000;    -0.52657;1.00000
 730.889;   71.28000;    -0.52533;1.00000
 731.979;   71.39000;    -0.52400;1.00000
 733.082;   71.50000;    -0.52265;1.00000
 734.178;   71.61000;    -0.52128;1.00000
 735.277;   71.72000;    -0.51989;1.00000
 736.383;   71.83000;    -0.51885;1.00000
 737.474;   71.94000;    -0.51757;1.00000
 738.568;   72.05000;    -0.51623;1.00000
 739.68;   72.16000;    -0.51509;1.00000
 740.771;   72.27000;    -0.51395;1.00000
 741.873;   72.38000;    -0.51283;1.00000
 742.971;   72.49000;    -0.51179;1.00000
 744.066;   72.60000;    -0.51086;1.00000
 745.178;   72.71000;    -0.51002;1.00000
 746.27;   72.82000;    -0.50923;1.00000
 747.366;   72.93000;    -0.50864;1.00000
 748.467;   73.04000;    -0.50802;1.00000
 749.568;   73.15000;    -0.50741;1.00000
 750.669;   73.26000;    -0.50707;1.00000
 751.764;   73.37000;    -0.50654;1.00000
 752.864;   73.48000;    -0.50621;1.00000
 753.974;   73.59000;    -0.50610;1.00000
 755.069;   73.70000;    -0.50592;1.00000
 756.174;   73.81000;    -0.50580;1.00000
 757.266;   73.92000;    -0.50581;1.00000
 758.381;   74.03000;    -0.50597;1.00000
 759.485;   74.14000;    -0.50598;1.00000
 760.576;   74.25000;    -0.50617;1.00000
 761.68;   74.36000;    -0.50624;1.00000
 762.778;   74.47000;    -0.50644;1.00000
 763.892;   74.58000;    -0.50670;1.00000
 764.989;   74.69000;    -0.50705;1.00000
 766.086;   74.80000;    -0.50735;1.00000
 767.194;   74.91000;    -0.50762;1.00000
 768.299;   75.02000;    -0.50795;1.00000
 769.395;   75.13000;    -0.50841;1.00000
 770.501;   75.24000;    -0.50883;1.00000
 771.598;   75.35000;    -0.50916;1.00000
 772.699;   75.46000;    -0.50969;1.00000
 773.794;   75.57000;    -0.51013;1.00000
 774.907;   75.68000;    -0.51065;1.00000
 776.007;   75.79000;    -0.51119;1.00000
 777.106;   75.90000;    -0.51177;1.00000
 778.196;   76.01000;    -0.51229;1.00000
 779.309;   76.12000;    -0.51285;1.00000
 780.407;   76.23000;    -0.51341;1.00000
 781.511;   76.34000;    -0.51404;1.00000
 782.608;   76.45000;    -0.51465;1.00000
 783.726;   76.56000;    -0.51532;1.00000
 784.825;   76.67000;    -0.51594;1.00000
 785.924;   76.78000;    -0.51667;1.00000
 787.026;   76.89000;    -0.51736;1.00000
 788.126;   77.00000;    -0.51811;1.00000
 789.237;   77.11000;    -0.51878;1.00000
 790.321;   77.22000;    -0.51942;1.00000
 791.435;   77.33000;    -0.52012;1.00000
 792.533;   77.44000;    -0.52082;1.00000
 793.642;   77.55000;    -0.52154;1.00000
 794.736;   77.66000;    -0.52224;1.00000
 795.837;   77.77000;    -0.52292;1.00000
 796.95;   77.88000;    -0.52362;1.00000
 798.043;   77.99000;    -0.52426;1.00000
 799.152;   78.10000;    -0.52492;1.00000
 800.256;   78.21000;    -0.52564;1.00000
 801.353;   78.32000;    -0.52623;1.00000
 802.459;   78.43000;    -0.52694;1.00000
 803.559;   78.54000;    -0.52758;1.00000
 804.67;   78.65000;    -0.52825;1.00000
 805.768;   78.76000;    -0.52884;1.00000
 806.877;   78.87000;    -0.52945;1.00000
 807.982;   78.98000;    -0.53009;1.00000
 809.075;   79.09000;    -0.53068;1.00000
 810.178;   79.20000;    -0.53126;1.00000
 811.274;   79.31000;    -0.53180;1.00000
 812.38;   79.42000;    -0.53231;1.00000
 813.485;   79.53000;    -0.53285;1.00000
 814.578;   79.64000;    -0.53331;1.00000
 815.681;   79.75000;    -0.53376;1.00000
 816.789;   79.86000;    -0.53419;1.00000
 817.878;   79.97000;    -0.53463;1.00000
 818.98;   80.08000;    -0.53502;1.00000
 820.091;   80.19000;    -0.53560;1.00000
 821.19;   80.30000;    -0.53586;1.00000
 822.295;   80.41000;    -0.53636;1.00000
 823.391;   80.52000;    -0.53675;1.00000
 824.498;   80.63000;    -0.53727;1.00000
 825.597;   80.74000;    -0.53763;1.00000
 826.707;   80.85000;    -0.53793;1.00000
 827.803;   80.96000;    -0.53820;1.00000
 828.899;   81.07000;    -0.53849;1.00000
 830.006;   81.18000;    -0.53878;1.00000
 831.101;   81.29000;    -0.53910;1.00000
 832.206;   81.40000;    -0.53920;1.00000
 833.308;   81.51000;    -0.53948;1.00000
 834.409;   81.62000;    -0.53966;1.00000
 835.517;   81.73000;    -0.53989;1.00000
 836.613;   81.84000;    -0.54010;1.00000
 837.714;   81.95000;    -0.54034;1.00000
 838.828;   82.06000;    -0.54060;1.00000
 839.93;   82.17000;    -0.54083;1.00000
 841.037;   82.28000;    -0.54099;1.00000
 842.126;   82.39000;    -0.54116;1.00000
 843.233;   82.50000;    -0.54120;1.00000
 844.335;   82.61000;    -0.54147;1.00000
 845.426;   82.72000;    -0.54160;1.00000
 846.542;   82.83000;    -0.54180;1.00000
 847.641;   82.94000;    -0.54206;1.00000
 848.742;   83.05000;    -0.54221;1.00000
 849.847;   83.16000;    -0.54235;1.00000
 850.946;   83.27000;    -0.54250;1.00000
 852.046;   83.38000;    -0.54270;1.00000
 853.154;   83.49000;    -0.54294;1.00000
 854.259;   83.60000;    -0.54316;1.00000
 855.355;   83.71000;    -0.54338;1.00000
 856.463;   83.82000;    -0.54357;1.00000
 857.564;   83.93000;    -0.54373;1.00000
 858.665;   84.04000;    -0.54417;1.00000
 859.754;   84.15000;    -0.54434;1.00000
 860.866;   84.26000;    -0.54463;1.00000
 861.966;   84.37000;    -0.54483;1.00000
 863.077;   84.48000;    -0.54517;1.00000
 864.172;   84.59000;    -0.54548;1.00000
 865.281;   84.70000;    -0.54575;1.00000
 866.38;   84.81000;    -0.54612;1.00000
 867.483;   84.92000;    -0.54651;1.00000
 868.583;   85.03000;    -0.54682;1.00000
 869.689;   85.14000;    -0.54724;1.00000
 870.785;   85.25000;    -0.54751;1.00000
 871.894;   85.36000;    -0.54788;1.00000
 872.981;   85.47000;    -0.54817;1.00000
 874.094;   85.58000;    -0.54855;1.00000
 875.197;   85.69000;    -0.54887;1.00000
 876.294;   85.80000;    -0.54923;1.00000
 877.404;   85.91000;    -0.54959;1.00000
 878.504;   86.02000;    -0.54990;1.00000
 879.594;   86.13000;    -0.55031;1.00000
 880.707;   86.24000;    -0.55074;1.00000
 881.807;   86.35000;    -0.55099;1.00000
 882.909;   86.46000;    -0.55134;1.00000
 884.011;   86.57000;    -0.55166;1.00000
 885.111;   86.68000;    -0.55199;1.00000
 886.215;   86.79000;    -0.55225;1.00000
 887.323;   86.90000;    -0.55267;1.00000
 888.427;   87.01000;    -0.55291;1.00000
 889.531;   87.12000;    -0.55329;1.00000
 890.632;   87.23000;    -0.55363;1.00000
 891.725;   87.34000;    -0.55393;1.00000
 892.825;   87.45000;    -0.55431;1.00000
 893.934;   87.56000;    -0.55460;1.00000
 895.04;   87.67000;    -0.55496;1.00000
 896.142;   87.78000;    -0.55523;1.00000
 897.239;   87.89000;    -0.55556;1.00000
 898.334;   88.00000;    -0.55567;1.00000
 899.453;   88.11000;    -0.55588;1.00000
 900.552;   88.22000;    -0.55625;1.00000
 901.652;   88.33000;    -0.55647;1.00000
 902.753;   88.44000;    -0.55669;1.00000
 903.85;   88.55000;    -0.55704;1.00000
 904.948;   88.66000;    -0.55729;1.00000
 906.06;   88.77000;    -0.55770;1.00000
 907.163;   88.88000;    -0.55794;1.00000
 908.266;   88.99000;    -0.55835;1.00000
 909.367;   89.10000;    -0.55871;1.00000
 910.461;   89.21000;    -0.55893;1.00000
 911.567;   89.32000;    -0.55925;1.00000
 912.673;   89.43000;    -0.55966;1.00000
 913.773;   89.54000;    -0.55984;1.00000
 914.884;   89.65000;    -0.56016;1.00000
 915.988;   89.76000;    -0.56045;1.00000
 917.083;   89.87000;    -0.56082;1.00000
 918.188;   89.98000;    -0.56105;1.00000
 919.29;   90.09000;    -0.56126;1.00000
 920.39;   90.20000;    -0.56162;1.00000
 921.483;   90.31000;    -0.56180;1.00000
 922.592;   90.42000;    -0.56202;1.00000
 923.69;   90.53000;    -0.56234;1.00000
 924.792;   90.64000;    -0.56252;1.00000
 925.896;   90.75000;    -0.56277;1.00000
 927.001;   90.86000;    -0.56297;1.00000
 928.111;   90.97000;    -0.56317;1.00000
 929.219;   91.08000;    -0.56336;1.00000
 930.305;   91.19000;    -0.56362;1.00000
 931.42;   91.30000;    -0.56382;1.00000
 932.503;   91.41000;    -0.56411;1.00000
 933.621;   91.52000;    -0.56419;1.00000
 934.721;   91.63000;    -0.56446;1.00000
 935.826;   91.74000;    -0.56467;1.00000
 936.946;   91.85000;    -0.56482;1.00000
 938.042;   91.96000;    -0.56509;1.00000
 939.136;   92.07000;    -0.56530;1.00000
 940.251;   92.18000;    -0.56543;1.00000
 941.364;   92.29000;    -0.56566;1.00000
 942.455;   92.40000;    -0.56584;1.00000
 943.552;   92.51000;    -0.56600;1.00000
 944.659;   92.62000;    -0.56611;1.00000
 945.756;   92.73000;    -0.56625;1.00000
 946.867;   92.84000;    -0.56635;1.00000
 947.973;   92.95000;    -0.56641;1.00000
 949.068;   93.06000;    -0.56666;1.00000
 950.181;   93.17000;    -0.56677;1.00000
 951.276;   93.28000;    -0.56688;1.00000
 952.376;   93.39000;    -0.56695;1.00000
 953.474;   93.50000;    -0.56709;1.00000
 954.577;   93.61000;    -0.56726;1.00000
 955.689;   93.72000;    -0.56743;1.00000
 956.798;   93.83000;    -0.56753;1.00000
 957.887;   93.94000;    -0.56763;1.00000
 958.985;   94.05000;    -0.56776;1.00000
 960.098;   94.16000;    -0.56792;1.00000
 961.199;   94.27000;    -0.56799;1.00000
 962.308;   94.38000;    -0.56806;1.00000
 963.405;   94.49000;    -0.56812;1.00000
 964.506;   94.60000;    -0.56812;1.00000
 965.595;   94.71000;    -0.56819;1.00000
 966.699;   94.82000;    -0.56819;1.00000
 967.811;   94.93000;    -0.56825;1.00000
 968.91;   95.04000;    -0.56825;1.00000
 970.012;   95.15000;    -0.56822;1.00000
 971.12;   95.26000;    -0.56828;1.00000
 972.214;   95.37000;    -0.56840;1.00000
 973.321;   95.48000;    -0.56835;1.00000
 974.418;   95.59000;    -0.56831;1.00000
 975.527;   95.70000;    -0.56837;1.00000
 976.626;   95.81000;    -0.56841;1.00000
 977.731;   95.92000;    -0.56837;1.00000
 978.829;   96.03000;    -0.56835;1.00000
 979.938;   96.14000;    -0.56833;1.00000
 981.041;   96.25000;    -0.56830;1.00000
 982.134;   96.36000;    -0.56832;1.00000
 983.248;   96.47000;    -0.56832;1.00000
 984.349;   96.58000;    -0.56821;1.00000
 985.446;   96.69000;    -0.56814;1.00000
 986.557;   96.80000;    -0.56803;1.00000
 987.657;   96.91000;    -0.56798;1.00000
 988.756;   97.02000;    -0.56785;1.00000
 989.867;   97.13000;    -0.56775;1.00000
 990.973;   97.24000;    -0.56766;1.00000
 992.064;   97.35000;    -0.56763;1.00000
 993.172;   97.46000;    -0.56737;1.00000
 994.278;   97.57000;    -0.56731;1.00000
 995.384;   97.68000;    -0.56718;1.00000
 996.484;   97.79000;    -0.56699;1.00000
 997.581;   97.90000;    -0.56680;1.00000
 998.692;   98.01000;    -0.56675;1.00000
 999.789;   98.12000;    -0.56654;1.00000
1000.89;   98.23000;    -0.56638;1.00000
1001.99;   98.34000;    -0.56616;1.00000
1003.1;   98.45000;    -0.56591;1.00000
1004.19;   98.56000;    -0.56577;1.00000
1005.3;   98.67000;    -0.56552;1.00000
1006.4;   98.78000;    -0.56527;1.00000
1007.5;   98.89000;    -0.56496;1.00000
1008.61;   99.00000;    -0.56476;1.00000
1009.72;   99.11000;    -0.56449;1.00000
1010.82;   99.22000;    -0.56419;1.00000
1011.93;   99.33000;    -0.56383;1.00000
1013.03;   99.44000;    -0.56359;1.00000
1014.15;   99.55000;    -0.56324;1.00000
1015.23;   99.66000;    -0.56287;1.00000
1016.33;   99.77000;    -0.56268;1.00000
1017.46;   99.88000;    -0.56221;1.00000
1018.55;   99.99000;    -0.56188;1.00000
1019.66;  100.1;    -0.56148;1.00000
1020.75;  100.21;    -0.56117;1.00000
1021.86;  100.32;    -0.56088;1.00000
1022.97;  100.43;    -0.56046;1.00000
1024.07;  100.54;    -0.55998;1.00000
1025.17;  100.65;    -0.55947;1.00000
1026.27;  100.76;    -0.55918;1.00000
1027.38;  100.87;    -0.55855;1.00000
1028.49;  100.98;    -0.55814;1.00000
1029.59;  101.09;    -0.55757;1.00000
1030.69;  101.2;    -0.55711;1.00000
1031.79;  101.31;    -0.55643;1.00000
1032.89;  101.42;    -0.55583;1.00000
1034;  101.53;    -0.55534;1.00000
1035.1;  101.64;    -0.55476;1.00000
1036.21;  101.75;    -0.55414;1.00000
1037.31;  101.86;    -0.55345;1.00000
1038.41;  101.97;    -0.55286;1.00000
1039.52;  102.08;    -0.55214;1.00000
1040.62;  102.19;    -0.55157;1.00000
1041.72;  102.3;    -0.55101;1.00000
1042.82;  102.41;    -0.55018;1.00000
1043.94;  102.52;    -0.54957;1.00000
1045.03;  102.63;    -0.54882;1.00000
1046.14;  102.74;    -0.54804;1.00000
1047.24;  102.85;    -0.54728;1.00000
1048.35;  102.96;    -0.54652;1.00000
1049.45;  103.07;    -0.54566;1.00000
1050.56;  103.18;    -0.54490;1.00000
1051.65;  103.29;    -0.54400;1.00000
1052.76;  103.4;    -0.54327;1.00000
1053.86;  103.51;    -0.54246;1.00000
1054.95;  103.62;    -0.54165;1.00000
1056.06;  103.73;    -0.54088;1.00000
1057.16;  103.84;    -0.54008;1.00000
1058.27;  103.95;    -0.53940;1.00000
1059.36;  104.06;    -0.53869;1.00000
1060.47;  104.17;    -0.53782;1.00000
1061.58;  104.28;    -0.53714;1.00000
1062.68;  104.39;    -0.53638;1.00000
1063.78;  104.5;    -0.53568;1.00000
1064.88;  104.61;    -0.53493;1.00000
1065.98;  104.72;    -0.53422;1.00000
1067.09;  104.83;    -0.53341;1.00000
1068.2;  104.94;    -0.53264;1.00000
1069.3;  105.05;    -0.53178;1.00000
1070.41;  105.16;    -0.53102;1.00000
1071.51;  105.27;    -0.53012;1.00000
1072.62;  105.38;    -0.52927;1.00000
1073.71;  105.49;    -0.52839;1.00000
1074.82;  105.6;    -0.52754;1.00000
1075.92;  105.71;    -0.52659;1.00000
1077.03;  105.82;    -0.52574;1.00000
1078.13;  105.93;    -0.52465;1.00000
1079.24;  106.04;    -0.52359;1.00000
1080.33;  106.15;    -0.52255;1.00000
1081.44;  106.26;    -0.52142;1.00000
1082.53;  106.37;    -0.52042;1.00000
1083.64;  106.48;    -0.51926;1.00000
1084.75;  106.59;    -0.51810;1.00000
1085.85;  106.7;    -0.51712;1.00000
1086.94;  106.81;    -0.51576;1.00000
1088.05;  106.92;    -0.51475;1.00000
1089.15;  107.03;    -0.51367;1.00000
1090.25;  107.14;    -0.51255;1.00000
1091.35;  107.25;    -0.51152;1.00000
1092.45;  107.36;    -0.51044;1.00000
1093.56;  107.47;    -0.50937;1.00000
1094.66;  107.58;    -0.50823;1.00000
1095.78;  107.69;    -0.50707;1.00000
1096.87;  107.8;    -0.50588;1.00000
1097.98;  107.91;    -0.50479;1.00000
1099.09;  108.02;    -0.50373;1.00000
1100.19;  108.13;    -0.50269;1.00000
1101.3;  108.24;    -0.50156;1.00000
1102.39;  108.35;    -0.50048;1.00000
1103.48;  108.46;    -0.49940;1.00000
1104.59;  108.57;    -0.49829;1.00000
1105.7;  108.68;    -0.49722;1.00000
1106.8;  108.79;    -0.49607;1.00000
1107.9;  108.9;    -0.49518;1.00000
1109.01;  109.01;    -0.49407;1.00000
1110.11;  109.12;    -0.49317;1.00000
1111.22;  109.23;    -0.49206;1.00000
1112.31;  109.34;    -0.49105;1.00000
1113.42;  109.45;    -0.48992;1.00000
1114.51;  109.56;    -0.48893;1.00000
1115.62;  109.67;    -0.48782;1.00000
1116.71;  109.78;    -0.48667;1.00000
1117.83;  109.89;    -0.48561;1.00000
1118.92;  110;    -0.48456;1.00000
1120.02;  110.11;    -0.48342;1.00000
1121.13;  110.22;    -0.48235;1.00000
1122.23;  110.33;    -0.48125;1.00000
1123.34;  110.44;    -0.48015;1.00000
1124.43;  110.55;    -0.47891;1.00000
1125.54;  110.66;    -0.47800;1.00000
1126.64;  110.77;    -0.47674;1.00000
1127.74;  110.88;    -0.47570;1.00000
1128.85;  110.99;    -0.47464;1.00000
1129.95;  111.1;    -0.47340;1.00000
1131.05;  111.21;    -0.47241;1.00000
1132.15;  111.32;    -0.47114;1.00000
1133.26;  111.43;    -0.46999;1.00000
1134.36;  111.54;    -0.46878;1.00000
1135.45;  111.65;    -0.46764;1.00000
1136.56;  111.76;    -0.46650;1.00000
1137.67;  111.87;    -0.46526;1.00000
1138.77;  111.98;    -0.46412;1.00000
1139.87;  112.09;    -0.46295;1.00000
1140.97;  112.2;    -0.46181;1.00000
1142.07;  112.31;    -0.46063;1.00000
1143.18;  112.42;    -0.45937;1.00000
1144.28;  112.53;    -0.45817;1.00000
1145.39;  112.64;    -0.45696;1.00000
1146.48;  112.75;    -0.45570;1.00000
1147.57;  112.86;    -0.45447;1.00000
1148.68;  112.97;    -0.45328;1.00000
1149.78;  113.08;    -0.45206;1.00000
1150.88;  113.19;    -0.45073;1.00000
1151.99;  113.3;    -0.44943;1.00000
1153.09;  113.41;    -0.44817;1.00000
1154.19;  113.52;    -0.44682;1.00000
1155.3;  113.63;    -0.44542;1.00000
1156.41;  113.74;    -0.44389;1.00000
1157.5;  113.85;    -0.44256;1.00000
1158.6;  113.96;    -0.44118;1.00000
1159.71;  114.07;    -0.43967;1.00000
1160.82;  114.18;    -0.43817;1.00000
1161.92;  114.29;    -0.43674;1.00000
1163.02;  114.4;    -0.43540;1.00000
1164.12;  114.51;    -0.43393;1.00000
1165.22;  114.62;    -0.43251;1.00000
1166.33;  114.73;    -0.43106;1.00000
1167.42;  114.84;    -0.42957;1.00000
1168.53;  114.95;    -0.42820;1.00000
1169.63;  115.06;    -0.42676;1.00000
1170.73;  115.17;    -0.42521;1.00000
1171.83;  115.28;    -0.42371;1.00000
1172.93;  115.39;    -0.42207;1.00000
1174.03;  115.5;    -0.42050;1.00000
1175.14;  115.61;    -0.41893;1.00000
1176.24;  115.72;    -0.41739;1.00000
1177.35;  115.83;    -0.41583;1.00000
1178.45;  115.94;    -0.41413;1.00000
1179.56;  116.05;    -0.41253;1.00000
1180.65;  116.16;    -0.41086;1.00000
1181.75;  116.27;    -0.40916;1.00000
1182.86;  116.38;    -0.40750;1.00000
1183.96;  116.49;    -0.40578;1.00000
1185.05;  116.6;    -0.40405;1.00000
1186.15;  116.71;    -0.40236;1.00000
1187.26;  116.82;    -0.40046;1.00000
1188.36;  116.93;    -0.39866;1.00000
1189.46;  117.04;    -0.39687;1.00000
1190.56;  117.15;    -0.39502;1.00000
1191.67;  117.26;    -0.39332;1.00000
1192.77;  117.37;    -0.39143;1.00000
1193.87;  117.48;    -0.38954;1.00000
1194.97;  117.59;    -0.38766;1.00000
1196.08;  117.7;    -0.38581;1.00000
1197.18;  117.81;    -0.38389;1.00000
1198.28;  117.92;    -0.38195;1.00000
1199.39;  118.03;    -0.37999;1.00000
1200.48;  118.14;    -0.37801;1.00000
1201.58;  118.25;    -0.37608;1.00000
1202.68;  118.36;    -0.37402;1.00000
1203.79;  118.47;    -0.37212;1.00000
1204.9;  118.58;    -0.36998;1.00000
1205.99;  118.69;    -0.36796;1.00000
1207.09;  118.8;    -0.36593;1.00000
1208.19;  118.91;    -0.36389;1.00000
1209.3;  119.02;    -0.36189;1.00000
1210.4;  119.13;    -0.35984;1.00000
1211.5;  119.24;    -0.35776;1.00000
1212.61;  119.35;    -0.35573;1.00000
1213.71;  119.46;    -0.35365;1.00000
1214.8;  119.57;    -0.35149;1.00000
1215.9;  119.68;    -0.34937;1.00000
1217;  119.79;    -0.34729;1.00000
1218.11;  119.9;    -0.34511;1.00000
1219.21;  120.01;    -0.34312;1.00000
1220.31;  120.12;    -0.34111;1.00000
1221.42;  120.23;    -0.33922;1.00000
1222.52;  120.34;    -0.33731;1.00000
1223.62;  120.45;    -0.33548;1.00000
1224.72;  120.56;    -0.33372;1.00000
1225.83;  120.67;    -0.33200;1.00000
1226.93;  120.78;    -0.33040;1.00000
1228.04;  120.89;    -0.32878;1.00000
1229.15;  121;    -0.32737;1.00000
1230.24;  121.11;    -0.32585;1.00000
1231.34;  121.22;    -0.32434;1.00000
1232.44;  121.33;    -0.32307;1.00000
1233.55;  121.44;    -0.32174;1.00000
1234.66;  121.55;    -0.32050;1.00000
1235.75;  121.66;    -0.31946;1.00000
1236.85;  121.77;    -0.31843;1.00000
1237.94;  121.88;    -0.31741;1.00000
1239.05;  121.99;    -0.31653;1.00000
1240.14;  122.1;    -0.31563;1.00000
1241.25;  122.21;    -0.31472;1.00000
1242.34;  122.32;    -0.31381;1.00000
1243.45;  122.43;    -0.31286;1.00000
1244.55;  122.54;    -0.31211;1.00000
1245.65;  122.65;    -0.31120;1.00000
1246.75;  122.76;    -0.31032;1.00000
1247.85;  122.87;    -0.30956;1.00000
1248.94;  122.98;    -0.30863;1.00000
1250.05;  123.09;    -0.30791;1.00000
1251.15;  123.2;    -0.30717;1.00000
1252.25;  123.31;    -0.30644;1.00000
1253.35;  123.42;    -0.30563;1.00000
1254.46;  123.53;    -0.30501;1.00000
1255.55;  123.64;    -0.30424;1.00000
1256.66;  123.75;    -0.30368;1.00000
1257.76;  123.86;    -0.30301;1.00000
1258.85;  123.97;    -0.30217;1.00000
1259.97;  124.08;    -0.30141;1.00000
1261.06;  124.19;    -0.30071;1.00000
1262.16;  124.3;    -0.29998;1.00000
1263.27;  124.41;    -0.29940;1.00000
1264.37;  124.52;    -0.29859;1.00000
1265.47;  124.63;    -0.29794;1.00000
1266.58;  124.74;    -0.29720;1.00000
1267.67;  124.85;    -0.29645;1.00000
1268.78;  124.96;    -0.29573;1.00000
1269.88;  125.07;    -0.29503;1.00000
1270.99;  125.18;    -0.29425;1.00000
1272.09;  125.29;    -0.29353;1.00000
1273.18;  125.4;    -0.29288;1.00000
1274.29;  125.51;    -0.29216;1.00000
1275.4;  125.62;    -0.29146;1.00000
1276.49;  125.73;    -0.29067;1.00000
1277.6;  125.84;    -0.28985;1.00000
1278.69;  125.95;    -0.28895;1.00000
1279.79;  126.06;    -0.28807;1.00000
1280.9;  126.17;    -0.28708;1.00000
1282;  126.28;    -0.28625;1.00000
1283.1;  126.39;    -0.28522;1.00000
1284.2;  126.5;    -0.28421;1.00000
1285.3;  126.61;    -0.28319;1.00000
1286.4;  126.72;    -0.28223;1.00000
1287.51;  126.83;    -0.28120;1.00000
1288.61;  126.94;    -0.28024;1.00000
1289.71;  127.05;    -0.27918;1.00000
1290.81;  127.16;    -0.27819;1.00000
1291.91;  127.27;    -0.27689;1.00000
1293;  127.38;    -0.27559;1.00000
1294.1;  127.49;    -0.27427;1.00000
1295.21;  127.6;    -0.27300;1.00000
1296.3;  127.71;    -0.27139;1.00000
1297.4;  127.82;    -0.26993;1.00000
1298.52;  127.93;    -0.26830;1.00000
1299.11;  127.99;    -0.26729;1.00000