File: charts/20230801/DTA/INSATURADAS/ZSCBA.txt
#FILE:                       ;DTA Danilo ZSCBA.ngb-dd9
#FORMAT:                     ;NETZSCH5
#IDENTITY:                   ;Danilo
#DECIMAL:                    ;POINT
#SEPARATOR:                  ;SEMICOLON
#MTYPE:                      ;DTA
#INSTRUMENT:                 ;NETZSCH DSC 404F3
#PROJECT:                    ;Danilo
#DATE/TIME:                  ;10/05/2022 09:40:23
#CORR. FILE:                 ;DTA_Branco_VidroZeolita.ngb-bd9
#LABORATORY:                 ;DSC/DTA
#OPERATOR:                   ;Eguiberto
#REMARK:                     ;Danilo
#SAMPLE:                     ;Zeolita
#SAMPLE MASS /mg:            ;110.10
#MATERIAL:                   ;Vidro + Zeolita
#REFERENCE:                  ;Empty
#REFERENCE MASS /mg:         ;0
#TYPE OF CRUCIBLE:           ;DTA/TG crucible Al2O3
#SAMPLE CRUCIBLE MASS /mg:   ;1343.6
#REFERENCE CRUCIBLE MASS /mg:;1342.95
#CORR. CODE:                 ;020
#EXO:                        ;-1
#RANGE:                      ;20/10.0(K/min)/1300
#SEGMENT:                    ;S1/1

##Temp./øC;Time/min;DTA/(uV/mg);Sensit./(uV/mW)
21.20000;0.0000e+000;-3.0402e-002;1.00000
21.21900;9.0000e-002;-2.8298e-002;1.00000
21.24000;0.18000;-2.6325e-002;1.00000
21.27300;0.27000;-2.4461e-002;1.00000
21.31800;0.36000;-2.2784e-002;1.00000
21.34400;0.45000;-2.1140e-002;1.00000
21.39700;0.54000;-1.9644e-002;1.00000
21.42800;0.63000;-1.8235e-002;1.00000
21.49000;0.72000;-1.6941e-002;1.00000
21.58600;0.81000;-1.5664e-002;1.00000
21.67700;0.90000;-1.4382e-002;1.00000
21.79200;0.99000;-1.3231e-002;1.00000
21.90200;1.08000;-1.2069e-002;1.00000
22.02200;1.17000;-1.0951e-002;1.00000
22.16500;1.26000;-9.8492e-003;1.00000
22.30900;1.35000;-8.7475e-003;1.00000
22.49600;1.44000;-7.7281e-003;1.00000
22.67000;1.53000;-6.5990e-003;1.00000
22.87400;1.62000;-5.5412e-003;1.00000
23.08000;1.71000;-4.5437e-003;1.00000
23.29600;1.80000;-3.4694e-003;1.00000
23.53100;1.89000;-2.4500e-003;1.00000
23.77700;1.98000;-1.3757e-003;1.00000
24.01500;2.07000;-4.1107e-004;1.00000
24.27600;2.16000;5.8097e-004;1.00000
24.56300;2.25000;1.5949e-003;1.00000
24.83200;2.34000;2.5596e-003;1.00000
25.14000;2.43000;3.5571e-003;1.00000
25.42700;2.52000;4.5108e-003;1.00000
25.75100;2.61000;5.3877e-003;1.00000
26.09200;2.70000;6.3414e-003;1.00000
26.42400;2.79000;7.2238e-003;1.00000
26.80900;2.88000;8.1665e-003;1.00000
27.16400;2.97000;9.0215e-003;1.00000
27.58100;3.06000;9.8711e-003;1.00000
27.98400;3.15000;1.0819e-002;1.00000
28.40400;3.24000;1.1614e-002;1.00000
28.83500;3.33000;1.2266e-002;1.00000
29.28800;3.42000;1.3165e-002;1.00000
29.76400;3.51000;1.3894e-002;1.00000
30.25000;3.60000;1.4733e-002;1.00000
30.76600;3.69000;1.5385e-002;1.00000
31.28300;3.78000;1.6097e-002;1.00000
31.82800;3.87000;1.6887e-002;1.00000
32.38600;3.96000;1.7479e-002;1.00000
32.96000;4.05000;1.8213e-002;1.00000
33.55900;4.14000;1.8843e-002;1.00000
34.16300;4.23000;1.9534e-002;1.00000
34.80200;4.32000;2.0203e-002;1.00000
35.44200;4.41000;2.0805e-002;1.00000
36.10700;4.50000;2.1419e-002;1.00000
36.78400;4.59000;2.2176e-002;1.00000
37.48400;4.68000;2.2855e-002;1.00000
38.19600;4.77000;2.3453e-002;1.00000
38.94500;4.86000;2.4198e-002;1.00000
39.69600;4.95000;2.4812e-002;1.00000
40.44600;5.04000;2.5431e-002;1.00000
41.23500;5.13000;2.6073e-002;1.00000
42.06200;5.22000;2.6747e-002;1.00000
42.85400;5.31000;2.7410e-002;1.00000
43.67800;5.40000;2.8079e-002;1.00000
44.53500;5.49000;2.8791e-002;1.00000
45.40500;5.58000;2.9334e-002;1.00000
46.29500;5.67000;3.0030e-002;1.00000
47.18300;5.76000;3.0655e-002;1.00000
48.11600;5.85000;3.1345e-002;1.00000
49.02600;5.94000;3.2080e-002;1.00000
49.97800;6.03000;3.2721e-002;1.00000
50.94000;6.12000;3.3406e-002;1.00000
51.92100;6.21000;3.4102e-002;1.00000
52.90600;6.30000;3.4847e-002;1.00000
53.91500;6.39000;3.5604e-002;1.00000
54.93500;6.48000;3.6273e-002;1.00000
55.98100;6.57000;3.6941e-002;1.00000
57.02900;6.66000;3.7709e-002;1.00000
58.07400;6.75000;3.8377e-002;1.00000
59.16300;6.84000;3.9161e-002;1.00000
60.24000;6.93000;3.9961e-002;1.00000
61.35300;7.02000;4.0739e-002;1.00000
62.46500;7.11000;4.1573e-002;1.00000
63.57700;7.20000;4.2422e-002;1.00000
64.73800;7.29000;4.3310e-002;1.00000
65.87200;7.38000;4.4110e-002;1.00000
67.03800;7.47000;4.4976e-002;1.00000
68.18600;7.56000;4.5908e-002;1.00000
69.38500;7.65000;4.6894e-002;1.00000
70.56600;7.74000;4.7887e-002;1.00000
71.75200;7.83000;4.8890e-002;1.00000
72.93500;7.92000;4.9942e-002;1.00000
74.17200;8.01000;5.0939e-002;1.00000
75.38900;8.10000;5.1981e-002;1.00000
76.61400;8.19000;5.3137e-002;1.00000
77.82200;8.28000;5.4294e-002;1.00000
79.07200;8.37000;5.5373e-002;1.00000
80.32900;8.46000;5.6574e-002;1.00000
81.57300;8.55000;5.7752e-002;1.00000
82.82800;8.64000;5.8947e-002;1.00000
84.11700;8.73000;6.0175e-002;1.00000
85.39300;8.82000;6.1402e-002;1.00000
86.66000;8.91000;6.2658e-002;1.00000
87.95600;9.00000;6.3896e-002;1.00000
89.25500;9.09000;6.5168e-002;1.00000
90.54400;9.18000;6.6467e-002;1.00000
91.86000;9.27000;6.7705e-002;1.00000
93.15600;9.36000;6.8977e-002;1.00000
94.47300;9.45000;7.0227e-002;1.00000
95.78000;9.54000;7.1449e-002;1.00000
97.09400;9.63000;7.2704e-002;1.00000
98.42900;9.72000;7.3882e-002;1.00000
99.75100;9.81000;7.5148e-002;1.00000
101.072;9.90000;7.6338e-002;1.00000
102.389;9.99000;7.7604e-002;1.00000
103.7;10.08000;7.8738e-002;1.00000
105.027;10.17000;7.9884e-002;1.00000
106.352;10.26000;8.1090e-002;1.00000
107.662;10.35000;8.2219e-002;1.00000
108.992;10.44000;8.3271e-002;1.00000
110.311;10.53000;8.4258e-002;1.00000
111.641;10.62000;8.5337e-002;1.00000
112.942;10.71000;8.6329e-002;1.00000
114.247;10.80000;8.7283e-002;1.00000
115.562;10.89000;8.8155e-002;1.00000
116.871;10.98000;8.9169e-002;1.00000
118.163;11.07000;9.0024e-002;1.00000
119.476;11.16000;9.0879e-002;1.00000
120.782;11.25000;9.1619e-002;1.00000
122.083;11.34000;9.2413e-002;1.00000
123.369;11.43000;9.3159e-002;1.00000
124.679;11.52000;9.3783e-002;1.00000
125.969;11.61000;9.4452e-002;1.00000
127.264;11.70000;9.5088e-002;1.00000
128.55;11.79000;9.5652e-002;1.00000
129.83;11.88000;9.6168e-002;1.00000
131.121;11.97000;9.6683e-002;1.00000
132.399;12.06000;9.7171e-002;1.00000
133.671;12.15000;9.7642e-002;1.00000
134.95;12.24000;9.8020e-002;1.00000
136.217;12.33000;9.8366e-002;1.00000
137.484;12.42000;9.8749e-002;1.00000
138.745;12.51000;9.9111e-002;1.00000
139.98;12.60000;9.9352e-002;1.00000
141.259;12.69000;9.9686e-002;1.00000
142.485;12.78000;9.9873e-002;1.00000
143.735;12.87000;0.10013;1.00000
144.968;12.96000;0.10034;1.00000
146.209;13.05000;0.10055;1.00000
147.448;13.14000;0.10067;1.00000
148.675;13.23000;0.10082;1.00000
149.898;13.32000;0.10088;1.00000
151.092;13.41000;0.10104;1.00000
152.298;13.50000;0.10113;1.00000
153.496;13.59000;0.10111;1.00000
154.692;13.68000;0.10124;1.00000
155.866;13.77000;0.10124;1.00000
157.062;13.86000;0.10122;1.00000
158.227;13.95000;0.10123;1.00000
159.395;14.04000;0.10120;1.00000
160.536;14.13000;0.10119;1.00000
161.711;14.22000;0.10116;1.00000
162.831;14.31000;0.10108;1.00000
163.982;14.40000;0.10109;1.00000
165.131;14.49000;0.10088;1.00000
166.259;14.58000;0.10074;1.00000
167.36;14.67000;0.10069;1.00000
168.483;14.76000;0.10051;1.00000
169.591;14.85000;0.10043;1.00000
170.695;14.94000;0.10004;1.00000
171.784;15.03000;9.9834e-002;1.00000
172.874;15.12000;9.9659e-002;1.00000
173.963;15.21000;9.9484e-002;1.00000
175.046;15.30000;9.9221e-002;1.00000
176.123;15.39000;9.9001e-002;1.00000
177.183;15.48000;9.8672e-002;1.00000
178.241;15.57000;9.8486e-002;1.00000
179.304;15.66000;9.8152e-002;1.00000
180.332;15.75000;9.7839e-002;1.00000
181.389;15.84000;9.7527e-002;1.00000
182.434;15.93000;9.7171e-002;1.00000
183.46;16.02000;9.6787e-002;1.00000
184.492;16.11000;9.6332e-002;1.00000
185.514;16.20000;9.5932e-002;1.00000
186.541;16.29000;9.5455e-002;1.00000
187.553;16.38000;9.5039e-002;1.00000
188.57;16.47000;9.4545e-002;1.00000
189.562;16.56000;9.3975e-002;1.00000
190.557;16.65000;9.3318e-002;1.00000
191.553;16.74000;9.2715e-002;1.00000
192.542;16.83000;9.2041e-002;1.00000
193.533;16.92000;9.1334e-002;1.00000
194.512;17.01000;9.0637e-002;1.00000
195.469;17.10000;8.9810e-002;1.00000
196.451;17.19000;8.9026e-002;1.00000
197.413;17.28000;8.8100e-002;1.00000
198.372;17.37000;8.7278e-002;1.00000
199.334;17.46000;8.6291e-002;1.00000
200.283;17.55000;8.5239e-002;1.00000
201.214;17.64000;8.4192e-002;1.00000
202.157;17.73000;8.3079e-002;1.00000
203.109;17.82000;8.1939e-002;1.00000
204.045;17.91000;8.0712e-002;1.00000
204.967;18.00000;7.9445e-002;1.00000
205.892;18.09000;7.8114e-002;1.00000
206.81;18.18000;7.6743e-002;1.00000
207.719;18.27000;7.5296e-002;1.00000
208.64;18.36000;7.3756e-002;1.00000
209.557;18.45000;7.2287e-002;1.00000
210.463;18.54000;7.0205e-002;1.00000
211.353;18.63000;6.7064e-002;1.00000
212.267;18.72000;6.4340e-002;1.00000
213.173;18.81000;6.2679e-002;1.00000
214.07;18.90000;6.2120e-002;1.00000
214.965;18.99000;6.2066e-002;1.00000
215.856;19.08000;6.2230e-002;1.00000
216.742;19.17000;6.2225e-002;1.00000
217.63;19.26000;6.1956e-002;1.00000
218.502;19.35000;6.1309e-002;1.00000
219.389;19.44000;6.0405e-002;1.00000
220.264;19.53000;5.9073e-002;1.00000
221.144;19.62000;5.7610e-002;1.00000
222.002;19.71000;5.5784e-002;1.00000
222.877;19.80000;5.3729e-002;1.00000
223.753;19.89000;5.1405e-002;1.00000
224.615;19.98000;4.8890e-002;1.00000
225.482;20.07000;4.6193e-002;1.00000
226.322;20.16000;4.3354e-002;1.00000
227.204;20.25000;4.0356e-002;1.00000
228.062;20.34000;3.7089e-002;1.00000
228.934;20.43000;3.3757e-002;1.00000
229.787;20.52000;3.0287e-002;1.00000
230.64;20.61000;2.6615e-002;1.00000
231.503;20.70000;2.2921e-002;1.00000
232.344;20.79000;1.9106e-002;1.00000
233.19;20.88000;1.5330e-002;1.00000
234.053;20.97000;1.1362e-002;1.00000
234.909;21.06000;7.2567e-003;1.00000
235.757;21.15000;3.0364e-003;1.00000
236.601;21.24000;-1.3154e-003;1.00000
237.455;21.33000;-5.6727e-003;1.00000
238.303;21.42000;-1.0008e-002;1.00000
239.15;21.51000;-1.4404e-002;1.00000
239.991;21.60000;-1.8827e-002;1.00000
240.857;21.69000;-2.3299e-002;1.00000
241.695;21.78000;-2.7635e-002;1.00000
242.549;21.87000;-3.2052e-002;1.00000
243.385;21.96000;-3.6431e-002;1.00000
244.231;22.05000;-4.0767e-002;1.00000
245.075;22.14000;-4.5064e-002;1.00000
245.93;22.23000;-4.9268e-002;1.00000
246.783;22.32000;-5.3526e-002;1.00000
247.619;22.41000;-5.7736e-002;1.00000
248.477;22.50000;-6.1852e-002;1.00000
249.33;22.59000;-6.5919e-002;1.00000
250.166;22.68000;-6.9947e-002;1.00000
251.011;22.77000;-7.3954e-002;1.00000
251.856;22.86000;-7.7872e-002;1.00000
252.697;22.95000;-8.1731e-002;1.00000
253.545;23.04000;-8.5469e-002;1.00000
254.408;23.13000;-8.9267e-002;1.00000
255.247;23.22000;-9.3115e-002;1.00000
256.096;23.31000;-9.6825e-002;1.00000
256.941;23.40000;-0.10038;1.00000
257.796;23.49000;-0.10405;1.00000
258.646;23.58000;-0.10757;1.00000
259.494;23.67000;-0.11098;1.00000
260.348;23.76000;-0.11433;1.00000
261.188;23.85000;-0.11769;1.00000
262.038;23.94000;-0.12086;1.00000
262.889;24.03000;-0.12412;1.00000
263.75;24.12000;-0.12744;1.00000
264.598;24.21000;-0.13049;1.00000
265.45;24.30000;-0.13354;1.00000
266.287;24.39000;-0.13650;1.00000
267.141;24.48000;-0.13937;1.00000
267.988;24.57000;-0.14217;1.00000
268.842;24.66000;-0.14491;1.00000
269.697;24.75000;-0.14767;1.00000
270.533;24.84000;-0.15037;1.00000
271.408;24.93000;-0.15312;1.00000
272.243;25.02000;-0.15582;1.00000
273.108;25.11000;-0.15834;1.00000
273.956;25.20000;-0.16088;1.00000
274.822;25.29000;-0.16330;1.00000
275.678;25.38000;-0.16564;1.00000
276.519;25.47000;-0.16798;1.00000
277.38;25.56000;-0.17020;1.00000
278.233;25.65000;-0.17250;1.00000
279.092;25.74000;-0.17463;1.00000
279.943;25.83000;-0.17685;1.00000
280.812;25.92000;-0.17893;1.00000
281.661;26.01000;-0.18092;1.00000
282.517;26.10000;-0.18298;1.00000
283.376;26.19000;-0.18492;1.00000
284.242;26.28000;-0.18693;1.00000
285.087;26.37000;-0.18919;1.00000
285.951;26.46000;-0.19171;1.00000
286.821;26.55000;-0.19498;1.00000
287.66;26.64000;-0.19767;1.00000
288.534;26.73000;-0.19997;1.00000
289.383;26.82000;-0.20211;1.00000
290.253;26.91000;-0.20409;1.00000
291.106;27.00000;-0.20591;1.00000
291.969;27.09000;-0.20770;1.00000
292.833;27.18000;-0.20948;1.00000
293.693;27.27000;-0.21117;1.00000
294.561;27.36000;-0.21286;1.00000
295.42;27.45000;-0.21442;1.00000
296.286;27.54000;-0.21609;1.00000
297.147;27.63000;-0.21762;1.00000
298.025;27.72000;-0.21913;1.00000
298.892;27.81000;-0.22064;1.00000
299.75;27.90000;-0.22212;1.00000
300.621;27.99000;-0.22357;1.00000
301.49;28.08000;-0.22502;1.00000
302.367;28.17000;-0.22642;1.00000
303.225;28.26000;-0.22787;1.00000
304.089;28.35000;-0.22921;1.00000
304.972;28.44000;-0.23054;1.00000
305.843;28.53000;-0.23183;1.00000
306.701;28.62000;-0.23320;1.00000
307.588;28.71000;-0.23445;1.00000
308.456;28.80000;-0.23582;1.00000
309.322;28.89000;-0.23709;1.00000
310.196;28.98000;-0.23836;1.00000
311.068;29.07000;-0.23959;1.00000
311.941;29.16000;-0.24087;1.00000
312.819;29.25000;-0.24209;1.00000
313.704;29.34000;-0.24330;1.00000
314.572;29.43000;-0.24453;1.00000
315.449;29.52000;-0.24575;1.00000
316.319;29.61000;-0.24692;1.00000
317.201;29.70000;-0.24804;1.00000
318.076;29.79000;-0.24929;1.00000
318.952;29.88000;-0.25042;1.00000
319.819;29.97000;-0.25153;1.00000
320.705;30.06000;-0.25273;1.00000
321.592;30.15000;-0.25379;1.00000
322.469;30.24000;-0.25493;1.00000
323.341;30.33000;-0.25603;1.00000
324.223;30.42000;-0.25709;1.00000
325.104;30.51000;-0.25825;1.00000
325.981;30.60000;-0.25926;1.00000
326.867;30.69000;-0.26034;1.00000
327.746;30.78000;-0.26136;1.00000
328.635;30.87000;-0.26246;1.00000
329.511;30.96000;-0.26352;1.00000
330.393;31.05000;-0.26451;1.00000
331.283;31.14000;-0.26561;1.00000
332.162;31.23000;-0.26656;1.00000
333.044;31.32000;-0.26758;1.00000
333.922;31.41000;-0.26867;1.00000
334.815;31.50000;-0.26964;1.00000
335.705;31.59000;-0.27072;1.00000
336.58;31.68000;-0.27163;1.00000
337.467;31.77000;-0.27262;1.00000
338.354;31.86000;-0.27357;1.00000
339.238;31.95000;-0.27450;1.00000
340.119;32.04000;-0.27545;1.00000
341.003;32.13000;-0.27650;1.00000
341.886;32.22000;-0.27729;1.00000
342.773;32.31000;-0.27825;1.00000
343.665;32.40000;-0.27922;1.00000
344.54;32.49000;-0.28007;1.00000
345.433;32.58000;-0.28107;1.00000
346.324;32.67000;-0.28198;1.00000
347.203;32.76000;-0.28290;1.00000
348.094;32.85000;-0.28375;1.00000
348.985;32.94000;-0.28474;1.00000
349.868;33.03000;-0.28566;1.00000
350.755;33.12000;-0.28660;1.00000
351.645;33.21000;-0.28742;1.00000
352.54;33.30000;-0.28836;1.00000
353.427;33.39000;-0.28926;1.00000
354.306;33.48000;-0.29006;1.00000
355.2;33.57000;-0.29092;1.00000
356.102;33.66000;-0.29170;1.00000
356.967;33.75000;-0.29251;1.00000
357.869;33.84000;-0.29342;1.00000
358.773;33.93000;-0.29420;1.00000
359.658;34.02000;-0.29507;1.00000
360.545;34.11000;-0.29578;1.00000
361.427;34.20000;-0.29665;1.00000
362.326;34.29000;-0.29740;1.00000
363.216;34.38000;-0.29813;1.00000
364.112;34.47000;-0.29892;1.00000
364.999;34.56000;-0.29976;1.00000
365.886;34.65000;-0.30037;1.00000
366.766;34.74000;-0.30117;1.00000
367.666;34.83000;-0.30183;1.00000
368.561;34.92000;-0.30257;1.00000
369.451;35.01000;-0.30328;1.00000
370.353;35.10000;-0.30402;1.00000
371.241;35.19000;-0.30473;1.00000
372.126;35.28000;-0.30549;1.00000
373.024;35.37000;-0.30611;1.00000
373.904;35.46000;-0.30683;1.00000
374.798;35.55000;-0.30758;1.00000
375.681;35.64000;-0.30825;1.00000
376.578;35.73000;-0.30892;1.00000
377.47;35.82000;-0.30960;1.00000
378.363;35.91000;-0.31027;1.00000
379.248;36.00000;-0.31082;1.00000
380.147;36.09000;-0.31152;1.00000
381.034;36.18000;-0.31214;1.00000
381.929;36.27000;-0.31280;1.00000
382.821;36.36000;-0.31346;1.00000
383.709;36.45000;-0.31409;1.00000
384.595;36.54000;-0.31471;1.00000
385.505;36.63000;-0.31541;1.00000
386.397;36.72000;-0.31602;1.00000
387.27;36.81000;-0.31658;1.00000
388.172;36.90000;-0.31718;1.00000
389.053;36.99000;-0.31784;1.00000
389.955;37.08000;-0.31832;1.00000
390.851;37.17000;-0.31892;1.00000
391.744;37.26000;-0.31951;1.00000
392.618;37.35000;-0.32007;1.00000
393.507;37.44000;-0.32061;1.00000
394.409;37.53000;-0.32120;1.00000
395.299;37.62000;-0.32169;1.00000
396.193;37.71000;-0.32222;1.00000
397.088;37.80000;-0.32266;1.00000
397.975;37.89000;-0.32313;1.00000
398.865;37.98000;-0.32375;1.00000
399.772;38.07000;-0.32426;1.00000
400.651;38.16000;-0.32467;1.00000
401.545;38.25000;-0.32521;1.00000
402.443;38.34000;-0.32572;1.00000
403.332;38.43000;-0.32620;1.00000
404.226;38.52000;-0.32666;1.00000
405.115;38.61000;-0.32717;1.00000
405.998;38.70000;-0.32757;1.00000
406.897;38.79000;-0.32806;1.00000
407.792;38.88000;-0.32852;1.00000
408.683;38.97000;-0.32892;1.00000
409.579;39.06000;-0.32933;1.00000
410.467;39.15000;-0.32983;1.00000
411.366;39.24000;-0.33026;1.00000
412.263;39.33000;-0.33066;1.00000
413.145;39.42000;-0.33111;1.00000
414.045;39.51000;-0.33154;1.00000
414.926;39.60000;-0.33194;1.00000
415.834;39.69000;-0.33228;1.00000
416.727;39.78000;-0.33276;1.00000
417.611;39.87000;-0.33314;1.00000
418.506;39.96000;-0.33351;1.00000
419.387;40.05000;-0.33390;1.00000
420.288;40.14000;-0.33428;1.00000
421.178;40.23000;-0.33468;1.00000
422.074;40.32000;-0.33492;1.00000
422.96;40.41000;-0.33537;1.00000
423.858;40.50000;-0.33565;1.00000
424.758;40.59000;-0.33597;1.00000
425.651;40.68000;-0.33637;1.00000
426.555;40.77000;-0.33661;1.00000
427.434;40.86000;-0.33692;1.00000
428.332;40.95000;-0.33720;1.00000
429.223;41.04000;-0.33749;1.00000
430.12;41.13000;-0.33774;1.00000
431.038;41.22000;-0.33797;1.00000
431.917;41.31000;-0.33831;1.00000
432.809;41.40000;-0.33848;1.00000
433.705;41.49000;-0.33867;1.00000
434.594;41.58000;-0.33879;1.00000
435.492;41.67000;-0.33905;1.00000
436.378;41.76000;-0.33923;1.00000
437.279;41.85000;-0.33945;1.00000
438.169;41.94000;-0.33958;1.00000
439.062;42.03000;-0.33982;1.00000
439.962;42.12000;-0.34002;1.00000
440.849;42.21000;-0.34015;1.00000
441.735;42.30000;-0.34029;1.00000
442.625;42.39000;-0.34059;1.00000
443.522;42.48000;-0.34072;1.00000
444.418;42.57000;-0.34093;1.00000
445.318;42.66000;-0.34113;1.00000
446.194;42.75000;-0.34125;1.00000
447.098;42.84000;-0.34144;1.00000
447.988;42.93000;-0.34163;1.00000
448.874;43.02000;-0.34177;1.00000
449.768;43.11000;-0.34199;1.00000
450.66;43.20000;-0.34212;1.00000
451.565;43.29000;-0.34226;1.00000
452.462;43.38000;-0.34247;1.00000
453.347;43.47000;-0.34261;1.00000
454.238;43.56000;-0.34275;1.00000
455.139;43.65000;-0.34284;1.00000
456.034;43.74000;-0.34300;1.00000
456.927;43.83000;-0.34310;1.00000
457.822;43.92000;-0.34318;1.00000
458.718;44.01000;-0.34330;1.00000
459.616;44.10000;-0.34331;1.00000
460.506;44.19000;-0.34347;1.00000
461.396;44.28000;-0.34349;1.00000
462.294;44.37000;-0.34353;1.00000
463.176;44.46000;-0.34370;1.00000
464.082;44.55000;-0.34368;1.00000
464.977;44.64000;-0.34377;1.00000
465.872;44.73000;-0.34383;1.00000
466.774;44.82000;-0.34393;1.00000
467.66;44.91000;-0.34396;1.00000
468.556;45.00000;-0.34397;1.00000
469.441;45.09000;-0.34414;1.00000
470.345;45.18000;-0.34429;1.00000
471.242;45.27000;-0.34424;1.00000
472.131;45.36000;-0.34435;1.00000
473.025;45.45000;-0.34443;1.00000
473.916;45.54000;-0.34453;1.00000
474.821;45.63000;-0.34459;1.00000
475.713;45.72000;-0.34468;1.00000
476.612;45.81000;-0.34486;1.00000
477.496;45.90000;-0.34490;1.00000
478.39;45.99000;-0.34496;1.00000
479.282;46.08000;-0.34503;1.00000
480.176;46.17000;-0.34511;1.00000
481.085;46.26000;-0.34525;1.00000
481.977;46.35000;-0.34531;1.00000
482.875;46.44000;-0.34540;1.00000
483.762;46.53000;-0.34553;1.00000
484.669;46.62000;-0.34560;1.00000
485.552;46.71000;-0.34577;1.00000
486.453;46.80000;-0.34583;1.00000
487.345;46.89000;-0.34595;1.00000
488.244;46.98000;-0.34602;1.00000
489.142;47.07000;-0.34615;1.00000
490.034;47.16000;-0.34630;1.00000
490.93;47.25000;-0.34645;1.00000
491.815;47.34000;-0.34652;1.00000
492.72;47.43000;-0.34670;1.00000
493.606;47.52000;-0.34678;1.00000
494.503;47.61000;-0.34702;1.00000
495.397;47.70000;-0.34713;1.00000
496.304;47.79000;-0.34730;1.00000
497.186;47.88000;-0.34748;1.00000
498.083;47.97000;-0.34761;1.00000
498.97;48.06000;-0.34769;1.00000
499.88;48.15000;-0.34794;1.00000
500.781;48.24000;-0.34812;1.00000
501.67;48.33000;-0.34827;1.00000
502.569;48.42000;-0.34845;1.00000
503.463;48.51000;-0.34867;1.00000
504.367;48.60000;-0.34891;1.00000
505.254;48.69000;-0.34916;1.00000
506.16;48.78000;-0.34935;1.00000
507.065;48.87000;-0.34958;1.00000
507.953;48.96000;-0.34972;1.00000
508.837;49.05000;-0.35001;1.00000
509.747;49.14000;-0.35022;1.00000
510.635;49.23000;-0.35043;1.00000
511.542;49.32000;-0.35072;1.00000
512.434;49.41000;-0.35091;1.00000
513.325;49.50000;-0.35127;1.00000
514.226;49.59000;-0.35146;1.00000
515.119;49.68000;-0.35172;1.00000
516.021;49.77000;-0.35210;1.00000
516.912;49.86000;-0.35234;1.00000
517.815;49.95000;-0.35255;1.00000
518.71;50.04000;-0.35285;1.00000
519.601;50.13000;-0.35309;1.00000
520.506;50.22000;-0.35346;1.00000
521.386;50.31000;-0.35375;1.00000
522.293;50.40000;-0.35411;1.00000
523.19;50.49000;-0.35443;1.00000
524.093;50.58000;-0.35475;1.00000
524.987;50.67000;-0.35506;1.00000
525.888;50.76000;-0.35527;1.00000
526.782;50.85000;-0.35566;1.00000
527.68;50.94000;-0.35599;1.00000
528.574;51.03000;-0.35629;1.00000
529.48;51.12000;-0.35663;1.00000
530.369;51.21000;-0.35699;1.00000
531.263;51.30000;-0.35725;1.00000
532.166;51.39000;-0.35762;1.00000
533.069;51.48000;-0.35808;1.00000
533.959;51.57000;-0.35831;1.00000
534.86;51.66000;-0.35869;1.00000
535.745;51.75000;-0.35915;1.00000
536.649;51.84000;-0.35942;1.00000
537.56;51.93000;-0.35977;1.00000
538.449;52.02000;-0.36020;1.00000
539.346;52.11000;-0.36055;1.00000
540.242;52.20000;-0.36088;1.00000
541.141;52.29000;-0.36128;1.00000
542.045;52.38000;-0.36161;1.00000
542.942;52.47000;-0.36192;1.00000
543.845;52.56000;-0.36230;1.00000
544.751;52.65000;-0.36260;1.00000
545.647;52.74000;-0.36295;1.00000
546.547;52.83000;-0.36334;1.00000
547.447;52.92000;-0.36371;1.00000
548.343;53.01000;-0.36404;1.00000
549.246;53.10000;-0.36435;1.00000
550.147;53.19000;-0.36479;1.00000
551.047;53.28000;-0.36510;1.00000
551.937;53.37000;-0.36543;1.00000
552.833;53.46000;-0.36581;1.00000
553.733;53.55000;-0.36618;1.00000
554.621;53.64000;-0.36652;1.00000
555.525;53.73000;-0.36690;1.00000
556.422;53.82000;-0.36727;1.00000
557.323;53.91000;-0.36758;1.00000
558.213;54.00000;-0.36786;1.00000
559.111;54.09000;-0.36824;1.00000
560.015;54.18000;-0.36860;1.00000
560.919;54.27000;-0.36904;1.00000
561.816;54.36000;-0.36941;1.00000
562.703;54.45000;-0.36971;1.00000
563.6;54.54000;-0.37001;1.00000
564.509;54.63000;-0.37035;1.00000
565.405;54.72000;-0.37028;1.00000
566.307;54.81000;-0.37023;1.00000
567.2;54.90000;-0.37054;1.00000
568.101;54.99000;-0.37080;1.00000
569.003;55.08000;-0.37123;1.00000
569.893;55.17000;-0.37169;1.00000
570.796;55.26000;-0.37214;1.00000
571.699;55.35000;-0.37254;1.00000
572.588;55.44000;-0.37304;1.00000
573.494;55.53000;-0.37342;1.00000
574.386;55.62000;-0.37387;1.00000
575.285;55.71000;-0.37440;1.00000
576.181;55.80000;-0.37476;1.00000
577.078;55.89000;-0.37542;1.00000
577.981;55.98000;-0.37594;1.00000
578.872;56.07000;-0.37639;1.00000
579.772;56.16000;-0.37677;1.00000
580.673;56.25000;-0.37734;1.00000
581.579;56.34000;-0.37787;1.00000
582.473;56.43000;-0.37837;1.00000
583.374;56.52000;-0.37884;1.00000
584.278;56.61000;-0.37935;1.00000
585.168;56.70000;-0.37977;1.00000
586.073;56.79000;-0.38022;1.00000
586.966;56.88000;-0.38072;1.00000
587.863;56.97000;-0.38122;1.00000
588.758;57.06000;-0.38172;1.00000
589.657;57.15000;-0.38214;1.00000
590.573;57.24000;-0.38263;1.00000
591.458;57.33000;-0.38308;1.00000
592.354;57.42000;-0.38359;1.00000
593.256;57.51000;-0.38402;1.00000
594.144;57.60000;-0.38448;1.00000
595.039;57.69000;-0.38488;1.00000
595.944;57.78000;-0.38530;1.00000
596.84;57.87000;-0.38582;1.00000
597.747;57.96000;-0.38623;1.00000
598.643;58.05000;-0.38676;1.00000
599.532;58.14000;-0.38714;1.00000
600.448;58.23000;-0.38761;1.00000
601.344;58.32000;-0.38811;1.00000
602.241;58.41000;-0.38851;1.00000
603.145;58.50000;-0.38895;1.00000
604.039;58.59000;-0.38940;1.00000
604.943;58.68000;-0.38987;1.00000
605.837;58.77000;-0.39028;1.00000
606.723;58.86000;-0.39072;1.00000
607.634;58.95000;-0.39107;1.00000
608.527;59.04000;-0.39154;1.00000
609.425;59.13000;-0.39200;1.00000
610.326;59.22000;-0.39242;1.00000
611.215;59.31000;-0.39285;1.00000
612.119;59.40000;-0.39336;1.00000
613.018;59.49000;-0.39374;1.00000
613.921;59.58000;-0.39416;1.00000
614.809;59.67000;-0.39468;1.00000
615.72;59.76000;-0.39512;1.00000
616.621;59.85000;-0.39563;1.00000
617.525;59.94000;-0.39613;1.00000
618.42;60.03000;-0.39660;1.00000
619.312;60.12000;-0.39710;1.00000
620.218;60.21000;-0.39759;1.00000
621.11;60.30000;-0.39801;1.00000
622.013;60.39000;-0.39847;1.00000
622.918;60.48000;-0.39895;1.00000
623.816;60.57000;-0.39941;1.00000
624.716;60.66000;-0.39982;1.00000
625.614;60.75000;-0.40026;1.00000
626.524;60.84000;-0.40082;1.00000
627.419;60.93000;-0.40127;1.00000
628.315;61.02000;-0.40171;1.00000
629.222;61.11000;-0.40209;1.00000
630.116;61.20000;-0.40261;1.00000
631.012;61.29000;-0.40300;1.00000
631.912;61.38000;-0.40349;1.00000
632.817;61.47000;-0.40394;1.00000
633.719;61.56000;-0.40441;1.00000
634.61;61.65000;-0.40496;1.00000
635.496;61.74000;-0.40533;1.00000
636.411;61.83000;-0.40585;1.00000
637.315;61.92000;-0.40632;1.00000
638.21;62.01000;-0.40670;1.00000
639.104;62.10000;-0.40721;1.00000
640.001;62.19000;-0.40768;1.00000
640.907;62.28000;-0.40807;1.00000
641.813;62.37000;-0.40868;1.00000
642.698;62.46000;-0.40908;1.00000
643.604;62.55000;-0.40963;1.00000
644.512;62.64000;-0.41005;1.00000
645.411;62.73000;-0.41047;1.00000
646.314;62.82000;-0.41101;1.00000
647.205;62.91000;-0.41147;1.00000
648.109;63.00000;-0.41194;1.00000
649.007;63.09000;-0.41239;1.00000
649.909;63.18000;-0.41287;1.00000
650.798;63.27000;-0.41340;1.00000
651.689;63.36000;-0.41383;1.00000
652.607;63.45000;-0.41438;1.00000
653.513;63.54000;-0.41484;1.00000
654.404;63.63000;-0.41524;1.00000
655.304;63.72000;-0.41583;1.00000
656.205;63.81000;-0.41638;1.00000
657.118;63.90000;-0.41683;1.00000
658.014;63.99000;-0.41728;1.00000
658.91;64.08000;-0.41782;1.00000
659.819;64.17000;-0.41819;1.00000
660.706;64.26000;-0.41865;1.00000
661.609;64.35000;-0.41918;1.00000
662.512;64.44000;-0.41961;1.00000
663.412;64.53000;-0.42013;1.00000
664.301;64.62000;-0.42064;1.00000
665.208;64.71000;-0.42114;1.00000
666.117;64.80000;-0.42167;1.00000
667;64.89000;-0.42216;1.00000
667.902;64.98000;-0.42271;1.00000
668.803;65.07000;-0.42312;1.00000
669.697;65.16000;-0.42369;1.00000
670.609;65.25000;-0.42421;1.00000
671.509;65.34000;-0.42471;1.00000
672.41;65.43000;-0.42520;1.00000
673.315;65.52000;-0.42566;1.00000
674.208;65.61000;-0.42619;1.00000
675.111;65.70000;-0.42667;1.00000
676.009;65.79000;-0.42714;1.00000
676.913;65.88000;-0.42762;1.00000
677.82;65.97000;-0.42814;1.00000
678.721;66.06000;-0.42860;1.00000
679.608;66.15000;-0.42910;1.00000
680.513;66.24000;-0.42962;1.00000
681.42;66.33000;-0.43017;1.00000
682.316;66.42000;-0.43063;1.00000
683.209;66.51000;-0.43117;1.00000
684.114;66.60000;-0.43166;1.00000
685.02;66.69000;-0.43204;1.00000
685.911;66.78000;-0.43259;1.00000
686.813;66.87000;-0.43313;1.00000
687.714;66.96000;-0.43363;1.00000
688.617;67.05000;-0.43406;1.00000
689.514;67.14000;-0.43457;1.00000
690.409;67.23000;-0.43510;1.00000
691.318;67.32000;-0.43552;1.00000
692.212;67.41000;-0.43603;1.00000
693.122;67.50000;-0.43651;1.00000
694.008;67.59000;-0.43700;1.00000
694.909;67.68000;-0.43755;1.00000
695.813;67.77000;-0.43796;1.00000
696.72;67.86000;-0.43846;1.00000
697.616;67.95000;-0.43901;1.00000
698.512;68.04000;-0.43958;1.00000
699.423;68.13000;-0.44001;1.00000
700.315;68.22000;-0.44052;1.00000
701.21;68.31000;-0.44105;1.00000
702.123;68.40000;-0.44163;1.00000
703.016;68.49000;-0.44213;1.00000
703.913;68.58000;-0.44258;1.00000
704.808;68.67000;-0.44311;1.00000
705.711;68.76000;-0.44366;1.00000
706.618;68.85000;-0.44420;1.00000
707.514;68.94000;-0.44470;1.00000
708.413;69.03000;-0.44508;1.00000
709.311;69.12000;-0.44569;1.00000
710.215;69.21000;-0.44625;1.00000
711.128;69.30000;-0.44673;1.00000
712.017;69.39000;-0.44724;1.00000
712.919;69.48000;-0.44785;1.00000
713.825;69.57000;-0.44835;1.00000
714.722;69.66000;-0.44886;1.00000
715.622;69.75000;-0.44946;1.00000
716.522;69.84000;-0.45001;1.00000
717.423;69.93000;-0.45044;1.00000
718.317;70.02000;-0.45096;1.00000
719.216;70.11000;-0.45151;1.00000
720.121;70.20000;-0.45193;1.00000
721.019;70.29000;-0.45254;1.00000
721.929;70.38000;-0.45296;1.00000
722.817;70.47000;-0.45340;1.00000
723.717;70.56000;-0.45392;1.00000
724.622;70.65000;-0.45454;1.00000
725.528;70.74000;-0.45498;1.00000
726.41;70.83000;-0.45554;1.00000
727.313;70.92000;-0.45610;1.00000
728.225;71.01000;-0.45645;1.00000
729.124;71.10000;-0.45712;1.00000
730.032;71.19000;-0.45756;1.00000
730.925;71.28000;-0.45816;1.00000
731.823;71.37000;-0.45863;1.00000
732.729;71.46000;-0.45912;1.00000
733.626;71.55000;-0.45973;1.00000
734.529;71.64000;-0.46018;1.00000
735.426;71.73000;-0.46072;1.00000
736.32;71.82000;-0.46126;1.00000
737.223;71.91000;-0.46156;1.00000
738.129;72.00000;-0.46223;1.00000
739.033;72.09000;-0.46275;1.00000
739.935;72.18000;-0.46313;1.00000
740.824;72.27000;-0.46356;1.00000
741.722;72.36000;-0.46413;1.00000
742.619;72.45000;-0.46460;1.00000
743.52;72.54000;-0.46512;1.00000
744.431;72.63000;-0.46563;1.00000
745.325;72.72000;-0.46623;1.00000
746.222;72.81000;-0.46673;1.00000
747.129;72.90000;-0.46724;1.00000
748.021;72.99000;-0.46777;1.00000
748.933;73.08000;-0.46836;1.00000
749.836;73.17000;-0.46892;1.00000
750.727;73.26000;-0.46938;1.00000
751.64;73.35000;-0.47002;1.00000
752.54;73.44000;-0.47049;1.00000
753.44;73.53000;-0.47096;1.00000
754.344;73.62000;-0.47151;1.00000
755.244;73.71000;-0.47205;1.00000
756.144;73.80000;-0.47255;1.00000
757.039;73.89000;-0.47306;1.00000
757.941;73.98000;-0.47346;1.00000
758.838;74.07000;-0.47396;1.00000
759.745;74.16000;-0.47440;1.00000
760.644;74.25000;-0.47489;1.00000
761.543;74.34000;-0.47536;1.00000
762.44;74.43000;-0.47582;1.00000
763.347;74.52000;-0.47623;1.00000
764.249;74.61000;-0.47674;1.00000
765.154;74.70000;-0.47719;1.00000
766.05;74.79000;-0.47762;1.00000
766.959;74.88000;-0.47805;1.00000
767.857;74.97000;-0.47845;1.00000
768.754;75.06000;-0.47894;1.00000
769.653;75.15000;-0.47937;1.00000
770.556;75.24000;-0.47987;1.00000
771.453;75.33000;-0.48035;1.00000
772.364;75.42000;-0.48078;1.00000
773.267;75.51000;-0.48127;1.00000
774.162;75.60000;-0.48174;1.00000
775.06;75.69000;-0.48216;1.00000
775.962;75.78000;-0.48249;1.00000
776.862;75.87000;-0.48294;1.00000
777.765;75.96000;-0.48338;1.00000
778.671;76.05000;-0.48389;1.00000
779.563;76.14000;-0.48420;1.00000
780.466;76.23000;-0.48464;1.00000
781.363;76.32000;-0.48510;1.00000
782.267;76.41000;-0.48546;1.00000
783.173;76.50000;-0.48592;1.00000
784.062;76.59000;-0.48638;1.00000
784.966;76.68000;-0.48666;1.00000
785.866;76.77000;-0.48725;1.00000
786.775;76.86000;-0.48760;1.00000
787.669;76.95000;-0.48801;1.00000
788.566;77.04000;-0.48847;1.00000
789.474;77.13000;-0.48884;1.00000
790.373;77.22000;-0.48926;1.00000
791.264;77.31000;-0.48966;1.00000
792.173;77.40000;-0.49008;1.00000
793.076;77.49000;-0.49061;1.00000
793.97;77.58000;-0.49102;1.00000
794.878;77.67000;-0.49148;1.00000
795.779;77.76000;-0.49189;1.00000
796.671;77.85000;-0.49235;1.00000
797.569;77.94000;-0.49279;1.00000
798.481;78.03000;-0.49320;1.00000
799.379;78.12000;-0.49369;1.00000
800.271;78.21000;-0.49405;1.00000
801.185;78.30000;-0.49439;1.00000
802.072;78.39000;-0.49479;1.00000
802.973;78.48000;-0.49519;1.00000
803.865;78.57000;-0.49562;1.00000
804.776;78.66000;-0.49613;1.00000
805.682;78.75000;-0.49642;1.00000
806.585;78.84000;-0.49688;1.00000
807.479;78.93000;-0.49729;1.00000
808.384;79.02000;-0.49769;1.00000
809.289;79.11000;-0.49819;1.00000
810.186;79.20000;-0.49853;1.00000
811.079;79.29000;-0.49897;1.00000
811.985;79.38000;-0.49940;1.00000
812.889;79.47000;-0.49987;1.00000
813.794;79.56000;-0.50024;1.00000
814.685;79.65000;-0.50068;1.00000
815.596;79.74000;-0.50111;1.00000
816.481;79.83000;-0.50156;1.00000
817.395;79.92000;-0.50204;1.00000
818.297;80.01000;-0.50248;1.00000
819.196;80.10000;-0.50291;1.00000
820.109;80.19000;-0.50339;1.00000
821.011;80.28000;-0.50384;1.00000
821.896;80.37000;-0.50433;1.00000
822.806;80.46000;-0.50471;1.00000
823.712;80.55000;-0.50520;1.00000
824.611;80.64000;-0.50563;1.00000
825.52;80.73000;-0.50611;1.00000
826.424;80.82000;-0.50643;1.00000
827.331;80.91000;-0.50690;1.00000
828.232;81.00000;-0.50728;1.00000
829.133;81.09000;-0.50771;1.00000
830.036;81.18000;-0.50821;1.00000
830.946;81.27000;-0.50863;1.00000
831.843;81.36000;-0.50904;1.00000
832.744;81.45000;-0.50943;1.00000
833.656;81.54000;-0.50984;1.00000
834.542;81.63000;-0.51025;1.00000
835.451;81.72000;-0.51070;1.00000
836.341;81.81000;-0.51105;1.00000
837.26;81.90000;-0.51142;1.00000
838.162;81.99000;-0.51187;1.00000
839.059;82.08000;-0.51214;1.00000
839.956;82.17000;-0.51255;1.00000
840.863;82.26000;-0.51295;1.00000
841.764;82.35000;-0.51336;1.00000
842.664;82.44000;-0.51373;1.00000
843.555;82.53000;-0.51406;1.00000
844.465;82.62000;-0.51446;1.00000
845.36;82.71000;-0.51480;1.00000
846.252;82.80000;-0.51517;1.00000
847.155;82.89000;-0.51558;1.00000
848.058;82.98000;-0.51591;1.00000
848.959;83.07000;-0.51633;1.00000
849.854;83.16000;-0.51669;1.00000
850.76;83.25000;-0.51712;1.00000
851.661;83.34000;-0.51758;1.00000
852.561;83.43000;-0.51799;1.00000
853.468;83.52000;-0.51843;1.00000
854.365;83.61000;-0.51884;1.00000
855.274;83.70000;-0.51935;1.00000
856.161;83.79000;-0.51986;1.00000
857.064;83.88000;-0.52023;1.00000
857.956;83.97000;-0.52082;1.00000
858.86;84.06000;-0.52129;1.00000
859.764;84.15000;-0.52186;1.00000
860.671;84.24000;-0.52241;1.00000
861.561;84.33000;-0.52299;1.00000
862.467;84.42000;-0.52349;1.00000
863.372;84.51000;-0.52412;1.00000
864.275;84.60000;-0.52473;1.00000
865.169;84.69000;-0.52535;1.00000
866.071;84.78000;-0.52600;1.00000
866.977;84.87000;-0.52671;1.00000
867.884;84.96000;-0.52738;1.00000
868.781;85.05000;-0.52806;1.00000
869.685;85.14000;-0.52887;1.00000
870.582;85.23000;-0.52976;1.00000
871.495;85.32000;-0.53050;1.00000
872.395;85.41000;-0.53132;1.00000
873.3;85.50000;-0.53210;1.00000
874.209;85.59000;-0.53286;1.00000
875.098;85.68000;-0.53351;1.00000
876;85.77000;-0.53410;1.00000
876.906;85.86000;-0.53458;1.00000
877.805;85.95000;-0.53492;1.00000
878.715;86.04000;-0.53510;1.00000
879.616;86.13000;-0.53504;1.00000
880.504;86.22000;-0.53484;1.00000
881.415;86.31000;-0.53437;1.00000
882.311;86.40000;-0.53354;1.00000
883.216;86.49000;-0.53257;1.00000
884.117;86.58000;-0.53119;1.00000
885.009;86.67000;-0.52961;1.00000
885.915;86.76000;-0.52780;1.00000
886.814;86.85000;-0.52561;1.00000
887.72;86.94000;-0.52313;1.00000
888.623;87.03000;-0.52037;1.00000
889.516;87.12000;-0.51754;1.00000
890.41;87.21000;-0.51455;1.00000
891.326;87.30000;-0.51150;1.00000
892.212;87.39000;-0.50847;1.00000
893.115;87.48000;-0.50531;1.00000
894.024;87.57000;-0.50232;1.00000
894.92;87.66000;-0.49938;1.00000
895.819;87.75000;-0.49651;1.00000
896.723;87.84000;-0.49390;1.00000
897.612;87.93000;-0.49133;1.00000
898.525;88.02000;-0.48884;1.00000
899.422;88.11000;-0.48653;1.00000
900.326;88.20000;-0.48431;1.00000
901.222;88.29000;-0.48216;1.00000
902.116;88.38000;-0.48014;1.00000
903.018;88.47000;-0.47832;1.00000
903.934;88.56000;-0.47648;1.00000
904.834;88.65000;-0.47481;1.00000
905.721;88.74000;-0.47329;1.00000
906.62;88.83000;-0.47197;1.00000
907.522;88.92000;-0.47072;1.00000
908.424;89.01000;-0.46949;1.00000
909.325;89.10000;-0.46845;1.00000
910.228;89.19000;-0.46743;1.00000
911.13;89.28000;-0.46653;1.00000
912.018;89.37000;-0.46568;1.00000
912.927;89.46000;-0.46497;1.00000
913.834;89.55000;-0.46432;1.00000
914.722;89.64000;-0.46371;1.00000
915.631;89.73000;-0.46316;1.00000
916.53;89.82000;-0.46275;1.00000
917.439;89.91000;-0.46232;1.00000
918.334;90.00000;-0.46198;1.00000
919.238;90.09000;-0.46163;1.00000
920.144;90.18000;-0.46137;1.00000
921.04;90.27000;-0.46112;1.00000
921.942;90.36000;-0.46097;1.00000
922.845;90.45000;-0.46086;1.00000
923.746;90.54000;-0.46068;1.00000
924.652;90.63000;-0.46057;1.00000
925.556;90.72000;-0.46054;1.00000
926.451;90.81000;-0.46043;1.00000
927.346;90.90000;-0.46033;1.00000
928.266;90.99000;-0.46029;1.00000
929.165;91.08000;-0.46019;1.00000
930.061;91.17000;-0.46013;1.00000
930.967;91.26000;-0.46012;1.00000
931.869;91.35000;-0.46009;1.00000
932.78;91.44000;-0.46012;1.00000
933.677;91.53000;-0.46009;1.00000
934.577;91.62000;-0.46018;1.00000
935.488;91.71000;-0.46015;1.00000
936.394;91.80000;-0.46025;1.00000
937.297;91.89000;-0.46033;1.00000
938.209;91.98000;-0.46039;1.00000
939.108;92.07000;-0.46046;1.00000
940.006;92.16000;-0.46057;1.00000
940.915;92.25000;-0.46073;1.00000
941.812;92.34000;-0.46084;1.00000
942.72;92.43000;-0.46102;1.00000
943.624;92.52000;-0.46104;1.00000
944.526;92.61000;-0.46118;1.00000
945.438;92.70000;-0.46126;1.00000
946.345;92.79000;-0.46138;1.00000
947.242;92.88000;-0.46150;1.00000
948.148;92.97000;-0.46163;1.00000
949.047;93.06000;-0.46170;1.00000
949.947;93.15000;-0.46189;1.00000
950.842;93.24000;-0.46204;1.00000
951.743;93.33000;-0.46216;1.00000
952.651;93.42000;-0.46222;1.00000
953.559;93.51000;-0.46243;1.00000
954.462;93.60000;-0.46255;1.00000
955.362;93.69000;-0.46270;1.00000
956.266;93.78000;-0.46293;1.00000
957.171;93.87000;-0.46310;1.00000
958.076;93.96000;-0.46322;1.00000
958.969;94.05000;-0.46345;1.00000
959.879;94.14000;-0.46355;1.00000
960.785;94.23000;-0.46378;1.00000
961.681;94.32000;-0.46394;1.00000
962.583;94.41000;-0.46406;1.00000
963.486;94.50000;-0.46421;1.00000
964.402;94.59000;-0.46432;1.00000
965.301;94.68000;-0.46452;1.00000
966.198;94.77000;-0.46476;1.00000
967.104;94.86000;-0.46486;1.00000
968.007;94.95000;-0.46497;1.00000
968.915;95.04000;-0.46504;1.00000
969.822;95.13000;-0.46503;1.00000
970.722;95.22000;-0.46514;1.00000
971.625;95.31000;-0.46529;1.00000
972.526;95.40000;-0.46545;1.00000
973.42;95.49000;-0.46541;1.00000
974.323;95.58000;-0.46561;1.00000
975.225;95.67000;-0.46565;1.00000
976.127;95.76000;-0.46579;1.00000
977.031;95.85000;-0.46597;1.00000
977.932;95.94000;-0.46605;1.00000
978.84;96.03000;-0.46609;1.00000
979.735;96.12000;-0.46626;1.00000
980.647;96.21000;-0.46637;1.00000
981.546;96.30000;-0.46649;1.00000
982.447;96.39000;-0.46663;1.00000
983.349;96.48000;-0.46673;1.00000
984.25;96.57000;-0.46677;1.00000
985.151;96.66000;-0.46682;1.00000
986.058;96.75000;-0.46687;1.00000
986.965;96.84000;-0.46702;1.00000
987.854;96.93000;-0.46703;1.00000
988.759;97.02000;-0.46713;1.00000
989.658;97.11000;-0.46727;1.00000
990.559;97.20000;-0.46736;1.00000
991.46;97.29000;-0.46743;1.00000
992.356;97.38000;-0.46746;1.00000
993.274;97.47000;-0.46754;1.00000
994.17;97.56000;-0.46756;1.00000
995.076;97.65000;-0.46771;1.00000
995.971;97.74000;-0.46764;1.00000
996.875;97.83000;-0.46779;1.00000
997.772;97.92000;-0.46780;1.00000
998.681;98.01000;-0.46785;1.00000
999.582;98.10000;-0.46796;1.00000
1000.48;98.19000;-0.46803;1.00000
1001.39;98.28000;-0.46799;1.00000
1002.28;98.37000;-0.46806;1.00000
1003.19;98.46000;-0.46807;1.00000
1004.09;98.55000;-0.46811;1.00000
1004.99;98.64000;-0.46813;1.00000
1005.89;98.73000;-0.46818;1.00000
1006.79;98.82000;-0.46818;1.00000
1007.71;98.91000;-0.46816;1.00000
1008.61;99.00000;-0.46827;1.00000
1009.52;99.09000;-0.46827;1.00000
1010.42;99.18000;-0.46836;1.00000
1011.33;99.27000;-0.46835;1.00000
1012.22;99.36000;-0.46836;1.00000
1013.14;99.45000;-0.46834;1.00000
1014.04;99.54000;-0.46834;1.00000
1014.94;99.63000;-0.46833;1.00000
1015.84;99.72000;-0.46832;1.00000
1016.74;99.81000;-0.46828;1.00000
1017.65;99.90000;-0.46822;1.00000
1018.54;99.99000;-0.46816;1.00000
1019.45;100.08;-0.46810;1.00000
1020.36;100.17;-0.46812;1.00000
1021.25;100.26;-0.46810;1.00000
1022.16;100.35;-0.46804;1.00000
1023.05;100.44;-0.46797;1.00000
1023.96;100.53;-0.46785;1.00000
1024.85;100.62;-0.46784;1.00000
1025.77;100.71;-0.46784;1.00000
1026.66;100.8;-0.46772;1.00000
1027.56;100.89;-0.46772;1.00000
1028.47;100.98;-0.46763;1.00000
1029.38;101.07;-0.46761;1.00000
1030.27;101.16;-0.46754;1.00000
1031.18;101.25;-0.46738;1.00000
1032.07;101.34;-0.46733;1.00000
1032.98;101.43;-0.46717;1.00000
1033.88;101.52;-0.46715;1.00000
1034.78;101.61;-0.46697;1.00000
1035.69;101.7;-0.46689;1.00000
1036.6;101.79;-0.46674;1.00000
1037.49;101.88;-0.46679;1.00000
1038.4;101.97;-0.46664;1.00000
1039.3;102.06;-0.46652;1.00000
1040.2;102.15;-0.46645;1.00000
1041.1;102.24;-0.46637;1.00000
1042.01;102.33;-0.46626;1.00000
1042.92;102.42;-0.46607;1.00000
1043.82;102.51;-0.46599;1.00000
1044.72;102.6;-0.46590;1.00000
1045.62;102.69;-0.46570;1.00000
1046.53;102.78;-0.46558;1.00000
1047.44;102.87;-0.46545;1.00000
1048.34;102.96;-0.46524;1.00000
1049.24;103.05;-0.46510;1.00000
1050.14;103.14;-0.46498;1.00000
1051.05;103.23;-0.46475;1.00000
1051.94;103.32;-0.46447;1.00000
1052.85;103.41;-0.46426;1.00000
1053.76;103.5;-0.46413;1.00000
1054.66;103.59;-0.46393;1.00000
1055.56;103.68;-0.46366;1.00000
1056.47;103.77;-0.46339;1.00000
1057.38;103.86;-0.46328;1.00000
1058.27;103.95;-0.46303;1.00000
1059.18;104.04;-0.46282;1.00000
1060.09;104.13;-0.46255;1.00000
1061;104.22;-0.46229;1.00000
1061.91;104.31;-0.46215;1.00000
1062.81;104.4;-0.46193;1.00000
1063.71;104.49;-0.46178;1.00000
1064.62;104.58;-0.46159;1.00000
1065.52;104.67;-0.46129;1.00000
1066.43;104.76;-0.46092;1.00000
1067.33;104.85;-0.46065;1.00000
1068.22;104.94;-0.46039;1.00000
1069.13;105.03;-0.46002;1.00000
1070.02;105.12;-0.45953;1.00000
1070.92;105.21;-0.45928;1.00000
1071.83;105.3;-0.45895;1.00000
1072.73;105.39;-0.45858;1.00000
1073.63;105.48;-0.45821;1.00000
1074.54;105.57;-0.45777;1.00000
1075.44;105.66;-0.45735;1.00000
1076.34;105.75;-0.45707;1.00000
1077.23;105.84;-0.45674;1.00000
1078.14;105.93;-0.45622;1.00000
1079.05;106.02;-0.45585;1.00000
1079.94;106.11;-0.45549;1.00000
1080.85;106.2;-0.45517;1.00000
1081.75;106.29;-0.45473;1.00000
1082.65;106.38;-0.45436;1.00000
1083.55;106.47;-0.45398;1.00000
1084.45;106.56;-0.45357;1.00000
1085.35;106.65;-0.45317;1.00000
1086.25;106.74;-0.45279;1.00000
1087.16;106.83;-0.45232;1.00000
1088.06;106.92;-0.45189;1.00000
1088.95;107.01;-0.45149;1.00000
1089.86;107.1;-0.45102;1.00000
1090.76;107.19;-0.45064;1.00000
1091.67;107.28;-0.45006;1.00000
1092.57;107.37;-0.44962;1.00000
1093.47;107.46;-0.44910;1.00000
1094.38;107.55;-0.44861;1.00000
1095.27;107.64;-0.44812;1.00000
1096.16;107.73;-0.44764;1.00000
1097.08;107.82;-0.44715;1.00000
1097.97;107.91;-0.44677;1.00000
1098.88;108;-0.44624;1.00000
1099.78;108.09;-0.44573;1.00000
1100.68;108.18;-0.44515;1.00000
1101.57;108.27;-0.44470;1.00000
1102.49;108.36;-0.44424;1.00000
1103.39;108.45;-0.44368;1.00000
1104.29;108.54;-0.44315;1.00000
1105.2;108.63;-0.44261;1.00000
1106.1;108.72;-0.44213;1.00000
1107.01;108.81;-0.44163;1.00000
1107.91;108.9;-0.44103;1.00000
1108.82;108.99;-0.44057;1.00000
1109.72;109.08;-0.44006;1.00000
1110.62;109.17;-0.43942;1.00000
1111.53;109.26;-0.43882;1.00000
1112.43;109.35;-0.43818;1.00000
1113.33;109.44;-0.43763;1.00000
1114.23;109.53;-0.43697;1.00000
1115.13;109.62;-0.43639;1.00000
1116.03;109.71;-0.43575;1.00000
1116.93;109.8;-0.43506;1.00000
1117.83;109.89;-0.43439;1.00000
1118.73;109.98;-0.43370;1.00000
1119.62;110.07;-0.43304;1.00000
1120.54;110.16;-0.43240;1.00000
1121.44;110.25;-0.43180;1.00000
1122.34;110.34;-0.43118;1.00000
1123.24;110.43;-0.43063;1.00000
1124.14;110.52;-0.42999;1.00000
1125.03;110.61;-0.42944;1.00000
1125.94;110.7;-0.42885;1.00000
1126.84;110.79;-0.42821;1.00000
1127.75;110.88;-0.42762;1.00000
1128.66;110.97;-0.42689;1.00000
1129.55;111.06;-0.42633;1.00000
1130.45;111.15;-0.42574;1.00000
1131.35;111.24;-0.42509;1.00000
1132.27;111.33;-0.42456;1.00000
1133.16;111.42;-0.42393;1.00000
1134.07;111.51;-0.42329;1.00000
1134.97;111.6;-0.42285;1.00000
1135.88;111.69;-0.42230;1.00000
1136.78;111.78;-0.42177;1.00000
1137.68;111.87;-0.42119;1.00000
1138.58;111.96;-0.42054;1.00000
1139.49;112.05;-0.41996;1.00000
1140.39;112.14;-0.41939;1.00000
1141.29;112.23;-0.41871;1.00000
1142.19;112.32;-0.41818;1.00000
1143.09;112.41;-0.41766;1.00000
1143.99;112.5;-0.41696;1.00000
1144.9;112.59;-0.41637;1.00000
1145.8;112.68;-0.41574;1.00000
1146.69;112.77;-0.41529;1.00000
1147.59;112.86;-0.41476;1.00000
1148.5;112.95;-0.41417;1.00000
1149.39;113.04;-0.41365;1.00000
1150.3;113.13;-0.41309;1.00000
1151.19;113.22;-0.41263;1.00000
1152.09;113.31;-0.41204;1.00000
1153.01;113.4;-0.41149;1.00000
1153.9;113.49;-0.41097;1.00000
1154.8;113.58;-0.41051;1.00000
1155.71;113.67;-0.40996;1.00000
1156.6;113.76;-0.40937;1.00000
1157.52;113.85;-0.40884;1.00000
1158.42;113.94;-0.40836;1.00000
1159.32;114.03;-0.40786;1.00000
1160.22;114.12;-0.40724;1.00000
1161.12;114.21;-0.40668;1.00000
1162.03;114.3;-0.40627;1.00000
1162.94;114.39;-0.40564;1.00000
1163.84;114.48;-0.40510;1.00000
1164.73;114.57;-0.40457;1.00000
1165.64;114.66;-0.40402;1.00000
1166.54;114.75;-0.40348;1.00000
1167.44;114.84;-0.40294;1.00000
1168.35;114.93;-0.40236;1.00000
1169.25;115.02;-0.40187;1.00000
1170.15;115.11;-0.40135;1.00000
1171.04;115.2;-0.40080;1.00000
1171.95;115.29;-0.40027;1.00000
1172.85;115.38;-0.39971;1.00000
1173.75;115.47;-0.39929;1.00000
1174.64;115.56;-0.39872;1.00000
1175.55;115.65;-0.39823;1.00000
1176.45;115.74;-0.39775;1.00000
1177.35;115.83;-0.39722;1.00000
1178.25;115.92;-0.39674;1.00000
1179.17;116.01;-0.39623;1.00000
1180.07;116.1;-0.39574;1.00000
1180.98;116.19;-0.39530;1.00000
1181.87;116.28;-0.39493;1.00000
1182.77;116.37;-0.39447;1.00000
1183.67;116.46;-0.39403;1.00000
1184.57;116.55;-0.39346;1.00000
1185.47;116.64;-0.39308;1.00000
1186.37;116.73;-0.39260;1.00000
1187.28;116.82;-0.39214;1.00000
1188.19;116.91;-0.39174;1.00000
1189.08;117;-0.39125;1.00000
1189.98;117.09;-0.39084;1.00000
1190.89;117.18;-0.39044;1.00000
1191.8;117.27;-0.38997;1.00000
1192.7;117.36;-0.38964;1.00000
1193.59;117.45;-0.38931;1.00000
1194.5;117.54;-0.38874;1.00000
1195.39;117.63;-0.38832;1.00000
1196.3;117.72;-0.38779;1.00000
1197.19;117.81;-0.38738;1.00000
1198.1;117.9;-0.38693;1.00000
1199;117.99;-0.38650;1.00000
1199.9;118.08;-0.38605;1.00000
1200.79;118.17;-0.38564;1.00000
1201.69;118.26;-0.38524;1.00000
1202.61;118.35;-0.38470;1.00000
1203.49;118.44;-0.38419;1.00000
1204.4;118.53;-0.38378;1.00000
1205.3;118.62;-0.38327;1.00000
1206.2;118.71;-0.38287;1.00000
1207.11;118.8;-0.38253;1.00000
1208.01;118.89;-0.38208;1.00000
1208.9;118.98;-0.38179;1.00000
1209.8;119.07;-0.38129;1.00000
1210.7;119.16;-0.38088;1.00000
1211.61;119.25;-0.38044;1.00000
1212.5;119.34;-0.37999;1.00000
1213.41;119.43;-0.37966;1.00000
1214.31;119.52;-0.37922;1.00000
1215.21;119.61;-0.37876;1.00000
1216.1;119.7;-0.37833;1.00000
1217.01;119.79;-0.37794;1.00000
1217.92;119.88;-0.37752;1.00000
1218.81;119.97;-0.37706;1.00000
1219.72;120.06;-0.37665;1.00000
1220.62;120.15;-0.37632;1.00000
1221.51;120.24;-0.37594;1.00000
1222.41;120.33;-0.37556;1.00000
1223.33;120.42;-0.37525;1.00000
1224.23;120.51;-0.37480;1.00000
1225.12;120.6;-0.37434;1.00000
1226.02;120.69;-0.37392;1.00000
1226.93;120.78;-0.37347;1.00000
1227.83;120.87;-0.37295;1.00000
1228.73;120.96;-0.37257;1.00000
1229.64;121.05;-0.37212;1.00000
1230.53;121.14;-0.37165;1.00000
1231.44;121.23;-0.37116;1.00000
1232.35;121.32;-0.37071;1.00000
1233.24;121.41;-0.37037;1.00000
1234.15;121.5;-0.36989;1.00000
1235.05;121.59;-0.36955;1.00000
1235.95;121.68;-0.36929;1.00000
1236.85;121.77;-0.36887;1.00000
1237.76;121.86;-0.36845;1.00000
1238.66;121.95;-0.36814;1.00000
1239.56;122.04;-0.36782;1.00000
1240.47;122.13;-0.36740;1.00000
1241.37;122.22;-0.36704;1.00000
1242.26;122.31;-0.36670;1.00000
1243.17;122.4;-0.36623;1.00000
1244.07;122.49;-0.36568;1.00000
1244.97;122.58;-0.36520;1.00000
1245.87;122.67;-0.36461;1.00000
1246.76;122.76;-0.36415;1.00000
1247.67;122.85;-0.36359;1.00000
1248.56;122.94;-0.36310;1.00000
1249.47;123.03;-0.36270;1.00000
1250.37;123.12;-0.36221;1.00000
1251.27;123.21;-0.36193;1.00000
1252.16;123.3;-0.36148;1.00000
1253.07;123.39;-0.36105;1.00000
1253.97;123.48;-0.36061;1.00000
1254.88;123.57;-0.36012;1.00000
1255.76;123.66;-0.35975;1.00000
1256.66;123.75;-0.35918;1.00000
1257.56;123.84;-0.35881;1.00000
1258.48;123.93;-0.35835;1.00000
1259.38;124.02;-0.35791;1.00000
1260.27;124.11;-0.35740;1.00000
1261.17;124.2;-0.35692;1.00000
1262.07;124.29;-0.35631;1.00000
1262.97;124.38;-0.35578;1.00000
1263.88;124.47;-0.35521;1.00000
1264.78;124.56;-0.35455;1.00000
1265.68;124.65;-0.35392;1.00000
1266.57;124.74;-0.35335;1.00000
1267.48;124.83;-0.35277;1.00000
1268.39;124.92;-0.35229;1.00000
1269.28;125.01;-0.35174;1.00000
1270.18;125.1;-0.35117;1.00000
1271.09;125.19;-0.35061;1.00000
1271.99;125.28;-0.34999;1.00000
1272.9;125.37;-0.34954;1.00000
1273.81;125.46;-0.34896;1.00000
1274.71;125.55;-0.34835;1.00000
1275.62;125.64;-0.34766;1.00000
1276.53;125.73;-0.34691;1.00000
1277.43;125.82;-0.34618;1.00000
1278.33;125.91;-0.34545;1.00000
1279.22;126;-0.34461;1.00000
1280.12;126.09;-0.34376;1.00000
1281.03;126.18;-0.34289;1.00000
1281.92;126.27;-0.34206;1.00000
1282.81;126.36;-0.34111;1.00000
1283.71;126.45;-0.34012;1.00000
1284.62;126.54;-0.33910;1.00000
1285.5;126.63;-0.33813;1.00000
1286.43;126.72;-0.33705;1.00000
1287.32;126.81;-0.33616;1.00000
1288.21;126.9;-0.33505;1.00000
1289.11;126.99;-0.33387;1.00000
1290.01;127.08;-0.33261;1.00000
1290.91;127.17;-0.33131;1.00000
1291.81;127.26;-0.32999;1.00000
1292.71;127.35;-0.32869;1.00000
1293.6;127.44;-0.32747;1.00000
1294.51;127.53;-0.32616;1.00000
1295.4;127.62;-0.32484;1.00000
1296.32;127.71;-0.32359;1.00000
1297.21;127.8;-0.32233;1.00000
1298.11;127.89;-0.32105;1.00000
1299.02;127.98;-0.31969;1.00000
1299.22;128;-0.31943;1.00000