File: charts/20230801/DTA/SATURADAS/Cs-STD 4A.txt
#FILE:                       ;DTA_4AS_01-06-23.ngb-dd9
#FORMAT:                     ;NETZSCH5
#IDENTITY:                   ;Mariana
#DECIMAL:                    ;POINT
#SEPARATOR:                  ;SEMICOLON
#MTYPE:                      ;DTA
#INSTRUMENT:                 ;NETZSCH DSC 404F3
#PROJECT:                    ;Mariana
#DATE/TIME:                  ;01/06/2023 15:04:49
#CORR. FILE:                 ;Branco_Mariana_01-06-23.ngb-bd9
#LABORATORY:                 ;DSC/DTA
#OPERATOR:                   ;Pamela
#REMARK:                     ;Mariana
#SAMPLE:                     ;4AS
#SAMPLE MASS /mg:            ;204.87
#MATERIAL:                   ;B2O3
#REFERENCE:                  ;Empty
#REFERENCE MASS /mg:         ;0
#TYPE OF CRUCIBLE:           ;DTA/TG crucible Al2O3
#SAMPLE CRUCIBLE MASS /mg:   ;1339.11
#REFERENCE CRUCIBLE MASS /mg:;1349.29
#CORR. CODE:                 ;020
#EXO:                        ;-1
#RANGE:                      ;20/10.0(K/min)/1300
#SEGMENT:                    ;S1/1

##Temp./øC;Time/min;DTA/(uV/mg);Sensit./(uV/mW)
  18.80400;0.0000e+000; 1.2289e-004;1.00000
  18.81300;    0.11000; 1.1172e-004;1.00000
  18.82600;    0.22000; 1.2289e-004;1.00000
  18.84700;    0.33000; 1.0055e-004;1.00000
  18.84600;    0.44000; 1.9737e-004;1.00000
  18.89300;    0.55000; 1.7130e-004;1.00000
  18.95800;    0.66000; 2.3089e-004;1.00000
  19.00500;    0.77000; 3.2027e-004;1.00000
  19.12600;    0.88000; 4.1337e-004;1.00000
  19.23600;    0.99000; 5.4743e-004;1.00000
  19.36700;    1.10000; 7.6342e-004;1.00000
  19.54500;    1.21000; 1.0129e-003;1.00000
  19.71900;    1.32000; 1.3034e-003;1.00000
  19.91000;    1.43000; 1.6162e-003;1.00000
  20.16700;    1.54000; 2.1264e-003;1.00000
  20.41700;    1.65000; 2.5696e-003;1.00000
  20.69000;    1.76000; 3.0611e-003;1.00000
  20.97500;    1.87000; 3.6570e-003;1.00000
  21.30900;    1.98000; 4.2528e-003;1.00000
  21.62000;    2.09000; 4.8934e-003;1.00000
  21.98200;    2.20000; 5.5786e-003;1.00000
  22.35100;    2.31000; 6.2564e-003;1.00000
  22.76400;    2.42000; 6.9527e-003;1.00000
  23.16800;    2.53000; 7.7199e-003;1.00000
  23.61400;    2.64000; 8.5243e-003;1.00000
  24.04300;    2.75000; 9.1983e-003;1.00000
  24.52500;    2.86000; 9.9394e-003;1.00000
  25.02200;    2.97000; 1.0699e-002;1.00000
  25.52800;    3.08000; 1.1470e-002;1.00000
  26.06500;    3.19000; 1.2226e-002;1.00000
  26.64600;    3.30000; 1.2971e-002;1.00000
  27.23500;    3.41000; 1.3801e-002;1.00000
  27.84600;    3.52000; 1.4553e-002;1.00000
  28.51900;    3.63000; 1.5283e-002;1.00000
  29.16900;    3.74000; 1.6080e-002;1.00000
  29.86600;    3.85000; 1.6821e-002;1.00000
  30.58000;    3.96000; 1.7607e-002;1.00000
  31.34900;    4.07000; 1.8412e-002;1.00000
  32.11700;    4.18000; 1.9182e-002;1.00000
  32.92800;    4.29000; 1.9942e-002;1.00000
  33.75700;    4.40000; 2.0773e-002;1.00000
  34.60900;    4.51000; 2.1573e-002;1.00000
  35.50000;    4.62000; 2.2407e-002;1.00000
  36.38000;    4.73000; 2.3212e-002;1.00000
  37.32600;    4.84000; 2.4057e-002;1.00000
  38.29000;    4.95000; 2.4906e-002;1.00000
  39.26400;    5.06000; 2.5826e-002;1.00000
  40.29100;    5.17000; 2.6701e-002;1.00000
  41.32000;    5.28000; 2.7532e-002;1.00000
  42.35400;    5.39000; 2.8418e-002;1.00000
  43.43600;    5.50000; 2.9342e-002;1.00000
  44.55300;    5.61000; 3.0287e-002;1.00000
  45.68100;    5.72000; 3.1256e-002;1.00000
  46.84900;    5.83000; 3.2228e-002;1.00000
  48.03200;    5.94000; 3.3203e-002;1.00000
  49.22700;    6.05000; 3.4194e-002;1.00000
  50.42900;    6.16000; 3.5170e-002;1.00000
  51.68300;    6.27000; 3.6171e-002;1.00000
  52.92800;    6.38000; 3.7210e-002;1.00000
  54.21900;    6.49000; 3.8261e-002;1.00000
  55.52300;    6.60000; 3.9322e-002;1.00000
  56.84300;    6.71000; 4.0350e-002;1.00000
  58.17600;    6.82000; 4.1489e-002;1.00000
  59.55100;    6.93000; 4.2655e-002;1.00000
  60.95100;    7.04000; 4.3843e-002;1.00000
  62.34600;    7.15000; 4.5042e-002;1.00000
  63.77500;    7.26000; 4.6226e-002;1.00000
  65.20700;    7.37000; 4.7526e-002;1.00000
  66.65200;    7.48000; 4.8870e-002;1.00000
  68.10500;    7.59000; 5.0274e-002;1.00000
  69.58000;    7.70000; 5.1701e-002;1.00000
  71.06100;    7.81000; 5.3127e-002;1.00000
  72.57400;    7.92000; 5.4620e-002;1.00000
  74.05600;    8.03000; 5.6147e-002;1.00000
  75.56700;    8.14000; 5.7763e-002;1.00000
  77.10700;    8.25000; 5.9342e-002;1.00000
  78.63900;    8.36000; 6.0947e-002;1.00000
  80.19000;    8.47000; 6.2612e-002;1.00000
  81.76400;    8.58000; 6.4321e-002;1.00000
  83.32500;    8.69000; 6.6083e-002;1.00000
  84.91100;    8.80000; 6.7896e-002;1.00000
  86.50500;    8.91000; 6.9695e-002;1.00000
  88.09800;    9.02000; 7.1542e-002;1.00000
  89.68700;    9.13000; 7.3348e-002;1.00000
  91.30600;    9.24000; 7.5166e-002;1.00000
  92.92000;    9.35000; 7.7080e-002;1.00000
  94.54000;    9.46000; 7.8878e-002;1.00000
  96.17400;    9.57000; 8.0767e-002;1.00000
  97.79500;    9.68000; 8.2629e-002;1.00000
  99.42200;    9.79000; 8.4491e-002;1.00000
 101.045;    9.90000; 8.6375e-002;1.00000
 102.685;   10.01000; 8.8188e-002;1.00000
 104.32;   10.12000; 9.0069e-002;1.00000
 105.926;   10.23000; 9.1886e-002;1.00000
 107.552;   10.34000; 9.3715e-002;1.00000
 109.185;   10.45000; 9.5491e-002;1.00000
 110.803;   10.56000; 9.7216e-002;1.00000
 112.423;   10.67000; 9.8929e-002;1.00000
 114.036;   10.78000;     0.10059;1.00000
 115.648;   10.89000;     0.10219;1.00000
 117.253;   11.00000;     0.10381;1.00000
 118.838;   11.11000;     0.10536;1.00000
 120.434;   11.22000;     0.10680;1.00000
 122.042;   11.33000;     0.10831;1.00000
 123.635;   11.44000;     0.10974;1.00000
 125.232;   11.55000;     0.11113;1.00000
 126.822;   11.66000;     0.11251;1.00000
 128.404;   11.77000;     0.11379;1.00000
 129.973;   11.88000;     0.11505;1.00000
 131.538;   11.99000;     0.11630;1.00000
 133.109;   12.10000;     0.11744;1.00000
 134.684;   12.21000;     0.11859;1.00000
 136.237;   12.32000;     0.11970;1.00000
 137.781;   12.43000;     0.12077;1.00000
 139.323;   12.54000;     0.12173;1.00000
 140.858;   12.65000;     0.12275;1.00000
 142.381;   12.76000;     0.12363;1.00000
 143.91;   12.87000;     0.12451;1.00000
 145.419;   12.98000;     0.12531;1.00000
 146.928;   13.09000;     0.12610;1.00000
 148.422;   13.20000;     0.12677;1.00000
 149.912;   13.31000;     0.12747;1.00000
 151.388;   13.42000;     0.12811;1.00000
 152.846;   13.53000;     0.12867;1.00000
 154.316;   13.64000;     0.12923;1.00000
 155.763;   13.75000;     0.12971;1.00000
 157.207;   13.86000;     0.13024;1.00000
 158.635;   13.97000;     0.13071;1.00000
 160.056;   14.08000;     0.13111;1.00000
 161.467;   14.19000;     0.13148;1.00000
 162.87;   14.30000;     0.13182;1.00000
 164.268;   14.41000;     0.13213;1.00000
 165.648;   14.52000;     0.13239;1.00000
 167.021;   14.63000;     0.13266;1.00000
 168.373;   14.74000;     0.13287;1.00000
 169.723;   14.85000;     0.13305;1.00000
 171.06;   14.96000;     0.13328;1.00000
 172.404;   15.07000;     0.13344;1.00000
 173.723;   15.18000;     0.13363;1.00000
 175.056;   15.29000;     0.13380;1.00000
 176.355;   15.40000;     0.13392;1.00000
 177.648;   15.51000;     0.13408;1.00000
 178.956;   15.62000;     0.13416;1.00000
 180.23;   15.73000;     0.13427;1.00000
 181.511;   15.84000;     0.13438;1.00000
 182.776;   15.95000;     0.13448;1.00000
 184.035;   16.06000;     0.13455;1.00000
 185.278;   16.17000;     0.13462;1.00000
 186.54;   16.28000;     0.13466;1.00000
 187.765;   16.39000;     0.13471;1.00000
 188.998;   16.50000;     0.13472;1.00000
 190.225;   16.61000;     0.13472;1.00000
 191.433;   16.72000;     0.13467;1.00000
 192.632;   16.83000;     0.13468;1.00000
 193.843;   16.94000;     0.13464;1.00000
 195.022;   17.05000;     0.13455;1.00000
 196.209;   17.16000;     0.13445;1.00000
 197.383;   17.27000;     0.13434;1.00000
 198.558;   17.38000;     0.13423;1.00000
 199.726;   17.49000;     0.13404;1.00000
 200.885;   17.60000;     0.13384;1.00000
 202.033;   17.71000;     0.13357;1.00000
 203.181;   17.82000;     0.13331;1.00000
 204.324;   17.93000;     0.13305;1.00000
 205.45;   18.04000;     0.13269;1.00000
 206.573;   18.15000;     0.13231;1.00000
 207.7;   18.26000;     0.13187;1.00000
 208.803;   18.37000;     0.13140;1.00000
 209.907;   18.48000;     0.13087;1.00000
 211.023;   18.59000;     0.13031;1.00000
 212.131;   18.70000;     0.12967;1.00000
 213.219;   18.81000;     0.12896;1.00000
 214.309;   18.92000;     0.12821;1.00000
 215.402;   19.03000;     0.12739;1.00000
 216.489;   19.14000;     0.12655;1.00000
 217.558;   19.25000;     0.12557;1.00000
 218.639;   19.36000;     0.12456;1.00000
 219.711;   19.47000;     0.12350;1.00000
 220.787;   19.58000;     0.12238;1.00000
 221.848;   19.69000;     0.12119;1.00000
 222.913;   19.80000;     0.11992;1.00000
 223.961;   19.91000;     0.11857;1.00000
 225.035;   20.02000;     0.11710;1.00000
 226.069;   20.13000;     0.11554;1.00000
 227.134;   20.24000;     0.11394;1.00000
 228.172;   20.35000;     0.11222;1.00000
 229.229;   20.46000;     0.11044;1.00000
 230.267;   20.57000;     0.10858;1.00000
 231.326;   20.68000;     0.10663;1.00000
 232.367;   20.79000;     0.10462;1.00000
 233.405;   20.90000;     0.10244;1.00000
 234.451;   21.01000;     0.10019;1.00000
 235.479;   21.12000; 9.7875e-002;1.00000
 236.532;   21.23000; 9.5465e-002;1.00000
 237.551;   21.34000; 9.3026e-002;1.00000
 238.598;   21.45000; 9.0449e-002;1.00000
 239.631;   21.56000; 8.7805e-002;1.00000
 240.675;   21.67000; 8.5068e-002;1.00000
 241.692;   21.78000; 8.2293e-002;1.00000
 242.747;   21.89000; 7.9404e-002;1.00000
 243.771;   22.00000; 7.6406e-002;1.00000
 244.801;   22.11000; 7.3386e-002;1.00000
 245.827;   22.22000; 7.0321e-002;1.00000
 246.861;   22.33000; 6.7170e-002;1.00000
 247.894;   22.44000; 6.3956e-002;1.00000
 248.928;   22.55000; 6.0735e-002;1.00000
 249.958;   22.66000; 5.7402e-002;1.00000
 250.995;   22.77000; 5.4047e-002;1.00000
 252.036;   22.88000; 5.0665e-002;1.00000
 253.063;   22.99000; 4.7332e-002;1.00000
 254.093;   23.10000; 4.3873e-002;1.00000
 255.139;   23.21000; 4.0454e-002;1.00000
 256.178;   23.32000; 3.7061e-002;1.00000
 257.213;   23.43000; 3.3661e-002;1.00000
 258.251;   23.54000; 3.0213e-002;1.00000
 259.286;   23.65000; 2.6809e-002;1.00000
 260.325;   23.76000; 2.3428e-002;1.00000
 261.351;   23.87000; 2.0072e-002;1.00000
 262.393;   23.98000; 1.6747e-002;1.00000
 263.446;   24.09000; 1.3418e-002;1.00000
 264.479;   24.20000; 1.0189e-002;1.00000
 265.518;   24.31000; 6.9118e-003;1.00000
 266.56;   24.42000; 3.7575e-003;1.00000
 267.608;   24.53000; 6.0329e-004;1.00000
 268.645;   24.64000;-2.4914e-003;1.00000
 269.689;   24.75000;-5.5823e-003;1.00000
 270.729;   24.86000;-8.5690e-003;1.00000
 271.762;   24.97000;-1.1533e-002;1.00000
 272.829;   25.08000;-1.4472e-002;1.00000
 273.86;   25.19000;-1.7306e-002;1.00000
 274.904;   25.30000;-2.0132e-002;1.00000
 275.972;   25.41000;-2.2884e-002;1.00000
 277.021;   25.52000;-2.5558e-002;1.00000
 278.053;   25.63000;-2.8202e-002;1.00000
 279.113;   25.74000;-3.0805e-002;1.00000
 280.152;   25.85000;-3.3356e-002;1.00000
 281.196;   25.96000;-3.5855e-002;1.00000
 282.262;   26.07000;-3.8246e-002;1.00000
 283.305;   26.18000;-4.0614e-002;1.00000
 284.367;   26.29000;-4.2912e-002;1.00000
 285.406;   26.40000;-4.5169e-002;1.00000
 286.468;   26.51000;-4.7366e-002;1.00000
 287.524;   26.62000;-4.9470e-002;1.00000
 288.581;   26.73000;-5.1470e-002;1.00000
 289.638;   26.84000;-5.3473e-002;1.00000
 290.692;   26.95000;-5.5410e-002;1.00000
 291.739;   27.06000;-5.7242e-002;1.00000
 292.796;   27.17000;-5.9033e-002;1.00000
 293.856;   27.28000;-6.0769e-002;1.00000
 294.9;   27.39000;-6.2567e-002;1.00000
 295.97;   27.50000;-6.4336e-002;1.00000
 297.038;   27.61000;-6.6165e-002;1.00000
 298.091;   27.72000;-6.7975e-002;1.00000
 299.144;   27.83000;-6.9773e-002;1.00000
 300.215;   27.94000;-7.1583e-002;1.00000
 301.287;   28.05000;-7.3337e-002;1.00000
 302.335;   28.16000;-7.5132e-002;1.00000
 303.409;   28.27000;-7.6849e-002;1.00000
 304.469;   28.38000;-7.8547e-002;1.00000
 305.535;   28.49000;-8.0290e-002;1.00000
 306.598;   28.60000;-8.1947e-002;1.00000
 307.673;   28.71000;-8.3582e-002;1.00000
 308.74;   28.82000;-8.5176e-002;1.00000
 309.805;   28.93000;-8.6665e-002;1.00000
 310.858;   29.04000;-8.8215e-002;1.00000
 311.94;   29.15000;-8.9656e-002;1.00000
 312.995;   29.26000;-9.1071e-002;1.00000
 314.069;   29.37000;-9.2419e-002;1.00000
 315.134;   29.48000;-9.3748e-002;1.00000
 316.209;   29.59000;-9.5078e-002;1.00000
 317.3;   29.70000;-9.6303e-002;1.00000
 318.366;   29.81000;-9.7484e-002;1.00000
 319.447;   29.92000;-9.8627e-002;1.00000
 320.523;   30.03000;-9.9793e-002;1.00000
 321.594;   30.14000;    -0.10085;1.00000
 322.661;   30.25000;    -0.10189;1.00000
 323.744;   30.36000;    -0.10286;1.00000
 324.819;   30.47000;    -0.10390;1.00000
 325.89;   30.58000;    -0.10482;1.00000
 326.959;   30.69000;    -0.10577;1.00000
 328.033;   30.80000;    -0.10680;1.00000
 329.12;   30.91000;    -0.10777;1.00000
 330.2;   31.02000;    -0.10873;1.00000
 331.274;   31.13000;    -0.10978;1.00000
 332.347;   31.24000;    -0.11075;1.00000
 333.43;   31.35000;    -0.11169;1.00000
 334.502;   31.46000;    -0.11270;1.00000
 335.583;   31.57000;    -0.11362;1.00000
 336.659;   31.68000;    -0.11459;1.00000
 337.733;   31.79000;    -0.11545;1.00000
 338.816;   31.90000;    -0.11631;1.00000
 339.897;   32.01000;    -0.11717;1.00000
 340.982;   32.12000;    -0.11798;1.00000
 342.059;   32.23000;    -0.11878;1.00000
 343.136;   32.34000;    -0.11957;1.00000
 344.224;   32.45000;    -0.12034;1.00000
 345.303;   32.56000;    -0.12099;1.00000
 346.385;   32.67000;    -0.12176;1.00000
 347.468;   32.78000;    -0.12252;1.00000
 348.561;   32.89000;    -0.12319;1.00000
 349.648;   33.00000;    -0.12387;1.00000
 350.716;   33.11000;    -0.12453;1.00000
 351.799;   33.22000;    -0.12512;1.00000
 352.887;   33.33000;    -0.12574;1.00000
 353.975;   33.44000;    -0.12638;1.00000
 355.053;   33.55000;    -0.12693;1.00000
 356.138;   33.66000;    -0.12751;1.00000
 357.231;   33.77000;    -0.12803;1.00000
 358.304;   33.88000;    -0.12855;1.00000
 359.406;   33.99000;    -0.12906;1.00000
 360.485;   34.10000;    -0.12958;1.00000
 361.565;   34.21000;    -0.13008;1.00000
 362.646;   34.32000;    -0.13057;1.00000
 363.734;   34.43000;    -0.13104;1.00000
 364.817;   34.54000;    -0.13152;1.00000
 365.901;   34.65000;    -0.13195;1.00000
 366.99;   34.76000;    -0.13233;1.00000
 368.081;   34.87000;    -0.13283;1.00000
 369.155;   34.98000;    -0.13320;1.00000
 370.248;   35.09000;    -0.13360;1.00000
 371.342;   35.20000;    -0.13399;1.00000
 372.423;   35.31000;    -0.13441;1.00000
 373.512;   35.42000;    -0.13484;1.00000
 374.602;   35.53000;    -0.13519;1.00000
 375.685;   35.64000;    -0.13556;1.00000
 376.776;   35.75000;    -0.13588;1.00000
 377.861;   35.86000;    -0.13625;1.00000
 378.952;   35.97000;    -0.13663;1.00000
 380.039;   36.08000;    -0.13692;1.00000
 381.132;   36.19000;    -0.13727;1.00000
 382.214;   36.30000;    -0.13759;1.00000
 383.317;   36.41000;    -0.13793;1.00000
 384.39;   36.52000;    -0.13822;1.00000
 385.483;   36.63000;    -0.13856;1.00000
 386.571;   36.74000;    -0.13885;1.00000
 387.666;   36.85000;    -0.13918;1.00000
 388.757;   36.96000;    -0.13948;1.00000
 389.837;   37.07000;    -0.13979;1.00000
 390.931;   37.18000;    -0.14006;1.00000
 392.027;   37.29000;    -0.14031;1.00000
 393.113;   37.40000;    -0.14063;1.00000
 394.214;   37.51000;    -0.14093;1.00000
 395.294;   37.62000;    -0.14118;1.00000
 396.386;   37.73000;    -0.14147;1.00000
 397.481;   37.84000;    -0.14174;1.00000
 398.561;   37.95000;    -0.14199;1.00000
 399.666;   38.06000;    -0.14222;1.00000
 400.745;   38.17000;    -0.14251;1.00000
 401.838;   38.28000;    -0.14276;1.00000
 402.93;   38.39000;    -0.14300;1.00000
 404.013;   38.50000;    -0.14326;1.00000
 405.105;   38.61000;    -0.14351;1.00000
 406.193;   38.72000;    -0.14375;1.00000
 407.295;   38.83000;    -0.14399;1.00000
 408.375;   38.94000;    -0.14426;1.00000
 409.472;   39.05000;    -0.14450;1.00000
 410.56;   39.16000;    -0.14470;1.00000
 411.652;   39.27000;    -0.14494;1.00000
 412.738;   39.38000;    -0.14517;1.00000
 413.836;   39.49000;    -0.14543;1.00000
 414.923;   39.60000;    -0.14566;1.00000
 416.016;   39.71000;    -0.14588;1.00000
 417.096;   39.82000;    -0.14610;1.00000
 418.191;   39.93000;    -0.14631;1.00000
 419.292;   40.04000;    -0.14650;1.00000
 420.389;   40.15000;    -0.14667;1.00000
 421.468;   40.26000;    -0.14697;1.00000
 422.574;   40.37000;    -0.14717;1.00000
 423.651;   40.48000;    -0.14740;1.00000
 424.733;   40.59000;    -0.14762;1.00000
 425.835;   40.70000;    -0.14784;1.00000
 426.929;   40.81000;    -0.14806;1.00000
 428.023;   40.92000;    -0.14827;1.00000
 429.112;   41.03000;    -0.14848;1.00000
 430.194;   41.14000;    -0.14869;1.00000
 431.313;   41.25000;    -0.14886;1.00000
 432.399;   41.36000;    -0.14909;1.00000
 433.476;   41.47000;    -0.14931;1.00000
 434.58;   41.58000;    -0.14950;1.00000
 435.676;   41.69000;    -0.14971;1.00000
 436.767;   41.80000;    -0.14987;1.00000
 437.844;   41.91000;    -0.15012;1.00000
 438.944;   42.02000;    -0.15026;1.00000
 440.036;   42.13000;    -0.15049;1.00000
 441.132;   42.24000;    -0.15071;1.00000
 442.222;   42.35000;    -0.15094;1.00000
 443.318;   42.46000;    -0.15110;1.00000
 444.411;   42.57000;    -0.15133;1.00000
 445.5;   42.68000;    -0.15151;1.00000
 446.586;   42.79000;    -0.15171;1.00000
 447.674;   42.90000;    -0.15194;1.00000
 448.774;   43.01000;    -0.15210;1.00000
 449.872;   43.12000;    -0.15233;1.00000
 450.963;   43.23000;    -0.15249;1.00000
 452.052;   43.34000;    -0.15270;1.00000
 453.142;   43.45000;    -0.15291;1.00000
 454.232;   43.56000;    -0.15305;1.00000
 455.33;   43.67000;    -0.15327;1.00000
 456.431;   43.78000;    -0.15340;1.00000
 457.516;   43.89000;    -0.15360;1.00000
 458.61;   44.00000;    -0.15375;1.00000
 459.712;   44.11000;    -0.15392;1.00000
 460.803;   44.22000;    -0.15413;1.00000
 461.898;   44.33000;    -0.15428;1.00000
 462.997;   44.44000;    -0.15444;1.00000
 464.083;   44.55000;    -0.15459;1.00000
 465.183;   44.66000;    -0.15474;1.00000
 466.27;   44.77000;    -0.15495;1.00000
 467.367;   44.88000;    -0.15512;1.00000
 468.468;   44.99000;    -0.15525;1.00000
 469.563;   45.10000;    -0.15542;1.00000
 470.65;   45.21000;    -0.15560;1.00000
 471.745;   45.32000;    -0.15576;1.00000
 472.829;   45.43000;    -0.15596;1.00000
 473.931;   45.54000;    -0.15614;1.00000
 475.037;   45.65000;    -0.15628;1.00000
 476.114;   45.76000;    -0.15645;1.00000
 477.216;   45.87000;    -0.15661;1.00000
 478.309;   45.98000;    -0.15678;1.00000
 479.403;   46.09000;    -0.15696;1.00000
 480.497;   46.20000;    -0.15713;1.00000
 481.587;   46.31000;    -0.15727;1.00000
 482.693;   46.42000;    -0.15740;1.00000
 483.789;   46.53000;    -0.15756;1.00000
 484.888;   46.64000;    -0.15773;1.00000
 485.976;   46.75000;    -0.15787;1.00000
 487.073;   46.86000;    -0.15807;1.00000
 488.158;   46.97000;    -0.15820;1.00000
 489.247;   47.08000;    -0.15832;1.00000
 490.351;   47.19000;    -0.15848;1.00000
 491.445;   47.30000;    -0.15862;1.00000
 492.548;   47.41000;    -0.15874;1.00000
 493.624;   47.52000;    -0.15890;1.00000
 494.725;   47.63000;    -0.15903;1.00000
 495.826;   47.74000;    -0.15914;1.00000
 496.923;   47.85000;    -0.15928;1.00000
 498.02;   47.96000;    -0.15938;1.00000
 499.11;   48.07000;    -0.15957;1.00000
 500.203;   48.18000;    -0.15968;1.00000
 501.298;   48.29000;    -0.15977;1.00000
 502.397;   48.40000;    -0.15984;1.00000
 503.481;   48.51000;    -0.15997;1.00000
 504.59;   48.62000;    -0.16011;1.00000
 505.683;   48.73000;    -0.16018;1.00000
 506.786;   48.84000;    -0.16026;1.00000
 507.879;   48.95000;    -0.16035;1.00000
 508.969;   49.06000;    -0.16046;1.00000
 510.075;   49.17000;    -0.16054;1.00000
 511.155;   49.28000;    -0.16058;1.00000
 512.253;   49.39000;    -0.16070;1.00000
 513.356;   49.50000;    -0.16075;1.00000
 514.451;   49.61000;    -0.16082;1.00000
 515.54;   49.72000;    -0.16089;1.00000
 516.636;   49.83000;    -0.16098;1.00000
 517.735;   49.94000;    -0.16106;1.00000
 518.836;   50.05000;    -0.16109;1.00000
 519.925;   50.16000;    -0.16115;1.00000
 521.023;   50.27000;    -0.16121;1.00000
 522.113;   50.38000;    -0.16125;1.00000
 523.21;   50.49000;    -0.16133;1.00000
 524.311;   50.60000;    -0.16138;1.00000
 525.41;   50.71000;    -0.16143;1.00000
 526.507;   50.82000;    -0.16146;1.00000
 527.597;   50.93000;    -0.16151;1.00000
 528.697;   51.04000;    -0.16149;1.00000
 529.791;   51.15000;    -0.16157;1.00000
 530.89;   51.26000;    -0.16156;1.00000
 531.986;   51.37000;    -0.16153;1.00000
 533.082;   51.48000;    -0.16159;1.00000
 534.18;   51.59000;    -0.16160;1.00000
 535.277;   51.70000;    -0.16168;1.00000
 536.361;   51.81000;    -0.16172;1.00000
 537.463;   51.92000;    -0.16181;1.00000
 538.561;   52.03000;    -0.16184;1.00000
 539.653;   52.14000;    -0.16191;1.00000
 540.754;   52.25000;    -0.16199;1.00000
 541.851;   52.36000;    -0.16205;1.00000
 542.942;   52.47000;    -0.16215;1.00000
 544.033;   52.58000;    -0.16213;1.00000
 545.133;   52.69000;    -0.16218;1.00000
 546.233;   52.80000;    -0.16230;1.00000
 547.334;   52.91000;    -0.16233;1.00000
 548.423;   53.02000;    -0.16244;1.00000
 549.528;   53.13000;    -0.16253;1.00000
 550.627;   53.24000;    -0.16267;1.00000
 551.722;   53.35000;    -0.16276;1.00000
 552.819;   53.46000;    -0.16283;1.00000
 553.919;   53.57000;    -0.16293;1.00000
 554.999;   53.68000;    -0.16300;1.00000
 556.113;   53.79000;    -0.16313;1.00000
 557.21;   53.90000;    -0.16322;1.00000
 558.309;   54.01000;    -0.16336;1.00000
 559.403;   54.12000;    -0.16345;1.00000
 560.507;   54.23000;    -0.16356;1.00000
 561.601;   54.34000;    -0.16366;1.00000
 562.689;   54.45000;    -0.16374;1.00000
 563.798;   54.56000;    -0.16383;1.00000
 564.891;   54.67000;    -0.16396;1.00000
 566;   54.78000;    -0.16407;1.00000
 567.085;   54.89000;    -0.16419;1.00000
 568.192;   55.00000;    -0.16429;1.00000
 569.295;   55.11000;    -0.16439;1.00000
 570.384;   55.22000;    -0.16444;1.00000
 571.475;   55.33000;    -0.16458;1.00000
 572.577;   55.44000;    -0.16445;1.00000
 573.669;   55.55000;    -0.16452;1.00000
 574.762;   55.66000;    -0.16464;1.00000
 575.864;   55.77000;    -0.16475;1.00000
 576.968;   55.88000;    -0.16487;1.00000
 578.068;   55.99000;    -0.16496;1.00000
 579.164;   56.10000;    -0.16509;1.00000
 580.254;   56.21000;    -0.16519;1.00000
 581.36;   56.32000;    -0.16529;1.00000
 582.453;   56.43000;    -0.16540;1.00000
 583.551;   56.54000;    -0.16548;1.00000
 584.653;   56.65000;    -0.16561;1.00000
 585.741;   56.76000;    -0.16571;1.00000
 586.838;   56.87000;    -0.16585;1.00000
 587.947;   56.98000;    -0.16598;1.00000
 589.034;   57.09000;    -0.16603;1.00000
 590.138;   57.20000;    -0.16618;1.00000
 591.245;   57.31000;    -0.16629;1.00000
 592.327;   57.42000;    -0.16645;1.00000
 593.43;   57.53000;    -0.16650;1.00000
 594.531;   57.64000;    -0.16665;1.00000
 595.631;   57.75000;    -0.16675;1.00000
 596.722;   57.86000;    -0.16690;1.00000
 597.825;   57.97000;    -0.16700;1.00000
 598.927;   58.08000;    -0.16715;1.00000
 600.032;   58.19000;    -0.16724;1.00000
 601.122;   58.30000;    -0.16735;1.00000
 602.232;   58.41000;    -0.16747;1.00000
 603.33;   58.52000;    -0.16762;1.00000
 604.423;   58.63000;    -0.16776;1.00000
 605.527;   58.74000;    -0.16786;1.00000
 606.626;   58.85000;    -0.16797;1.00000
 607.725;   58.96000;    -0.16805;1.00000
 608.813;   59.07000;    -0.16821;1.00000
 609.916;   59.18000;    -0.16823;1.00000
 611.013;   59.29000;    -0.16828;1.00000
 612.119;   59.40000;    -0.16839;1.00000
 613.209;   59.51000;    -0.16847;1.00000
 614.314;   59.62000;    -0.16854;1.00000
 615.394;   59.73000;    -0.16868;1.00000
 616.505;   59.84000;    -0.16875;1.00000
 617.611;   59.95000;    -0.16888;1.00000
 618.702;   60.06000;    -0.16893;1.00000
 619.804;   60.17000;    -0.16902;1.00000
 620.907;   60.28000;    -0.16913;1.00000
 621.999;   60.39000;    -0.16924;1.00000
 623.11;   60.50000;    -0.16933;1.00000
 624.196;   60.61000;    -0.16729;1.00000
 625.296;   60.72000;    -0.16728;1.00000
 626.392;   60.83000;    -0.16703;1.00000
 627.501;   60.94000;    -0.16708;1.00000
 628.598;   61.05000;    -0.16714;1.00000
 629.702;   61.16000;    -0.16721;1.00000
 630.797;   61.27000;    -0.16726;1.00000
 631.898;   61.38000;    -0.16732;1.00000
 632.992;   61.49000;    -0.16736;1.00000
 634.102;   61.60000;    -0.16746;1.00000
 635.198;   61.71000;    -0.16751;1.00000
 636.298;   61.82000;    -0.16754;1.00000
 637.404;   61.93000;    -0.16762;1.00000
 638.495;   62.04000;    -0.16771;1.00000
 639.591;   62.15000;    -0.16771;1.00000
 640.689;   62.26000;    -0.16780;1.00000
 641.801;   62.37000;    -0.16784;1.00000
 642.895;   62.48000;    -0.16790;1.00000
 644.009;   62.59000;    -0.16798;1.00000
 645.093;   62.70000;    -0.16801;1.00000
 646.195;   62.81000;    -0.16806;1.00000
 647.304;   62.92000;    -0.16809;1.00000
 648.394;   63.03000;    -0.16815;1.00000
 649.499;   63.14000;    -0.16819;1.00000
 650.607;   63.25000;    -0.16828;1.00000
 651.69;   63.36000;    -0.16826;1.00000
 652.807;   63.47000;    -0.16822;1.00000
 653.907;   63.58000;    -0.16825;1.00000
 655.002;   63.69000;    -0.16832;1.00000
 656.103;   63.80000;    -0.16836;1.00000
 657.201;   63.91000;    -0.16840;1.00000
 658.305;   64.02000;    -0.16842;1.00000
 659.409;   64.13000;    -0.16850;1.00000
 660.498;   64.24000;    -0.16871;1.00000
 661.604;   64.35000;    -0.16865;1.00000
 662.702;   64.46000;    -0.16870;1.00000
 663.803;   64.57000;    -0.16871;1.00000
 664.896;   64.68000;    -0.16872;1.00000
 665.992;   64.79000;    -0.16881;1.00000
 667.103;   64.90000;    -0.16884;1.00000
 668.205;   65.01000;    -0.16886;1.00000
 669.304;   65.12000;    -0.16891;1.00000
 670.404;   65.23000;    -0.16889;1.00000
 671.497;   65.34000;    -0.16895;1.00000
 672.596;   65.45000;    -0.16893;1.00000
 673.71;   65.56000;    -0.16902;1.00000
 674.805;   65.67000;    -0.16900;1.00000
 675.902;   65.78000;    -0.16902;1.00000
 676.992;   65.89000;    -0.16907;1.00000
 678.093;   66.00000;    -0.16912;1.00000
 679.188;   66.11000;    -0.16910;1.00000
 680.29;   66.22000;    -0.16912;1.00000
 681.399;   66.33000;    -0.16913;1.00000
 682.499;   66.44000;    -0.16918;1.00000
 683.592;   66.55000;    -0.16920;1.00000
 684.685;   66.66000;    -0.16920;1.00000
 685.783;   66.77000;    -0.16923;1.00000
 686.895;   66.88000;    -0.16921;1.00000
 687.996;   66.99000;    -0.16922;1.00000
 689.105;   67.10000;    -0.16925;1.00000
 690.198;   67.21000;    -0.16926;1.00000
 691.29;   67.32000;    -0.16926;1.00000
 692.402;   67.43000;    -0.16930;1.00000
 693.498;   67.54000;    -0.16924;1.00000
 694.608;   67.65000;    -0.16925;1.00000
 695.701;   67.76000;    -0.16939;1.00000
 696.793;   67.87000;    -0.16929;1.00000
 697.9;   67.98000;    -0.16927;1.00000
 699.003;   68.09000;    -0.16932;1.00000
 700.095;   68.20000;    -0.16928;1.00000
 701.213;   68.31000;    -0.16936;1.00000
 702.305;   68.42000;    -0.16933;1.00000
 703.403;   68.53000;    -0.16933;1.00000
 704.504;   68.64000;    -0.16930;1.00000
 705.605;   68.75000;    -0.16929;1.00000
 706.704;   68.86000;    -0.16933;1.00000
 707.805;   68.97000;    -0.16929;1.00000
 708.906;   69.08000;    -0.16928;1.00000
 710.012;   69.19000;    -0.16935;1.00000
 711.111;   69.30000;    -0.16926;1.00000
 712.207;   69.41000;    -0.16929;1.00000
 713.315;   69.52000;    -0.16925;1.00000
 714.414;   69.63000;    -0.16924;1.00000
 715.522;   69.74000;    -0.16925;1.00000
 716.618;   69.85000;    -0.16927;1.00000
 717.716;   69.96000;    -0.16918;1.00000
 718.818;   70.07000;    -0.16921;1.00000
 719.921;   70.18000;    -0.16916;1.00000
 721.028;   70.29000;    -0.16907;1.00000
 722.126;   70.40000;    -0.16907;1.00000
 723.213;   70.51000;    -0.16904;1.00000
 724.319;   70.62000;    -0.16902;1.00000
 725.412;   70.73000;    -0.16899;1.00000
 726.521;   70.84000;    -0.16896;1.00000
 727.614;   70.95000;    -0.16891;1.00000
 728.717;   71.06000;    -0.16887;1.00000
 729.828;   71.17000;    -0.16887;1.00000
 730.918;   71.28000;    -0.16883;1.00000
 732.021;   71.39000;    -0.16882;1.00000
 733.124;   71.50000;    -0.16882;1.00000
 734.225;   71.61000;    -0.16876;1.00000
 735.328;   71.72000;    -0.16868;1.00000
 736.426;   71.83000;    -0.16872;1.00000
 737.526;   71.94000;    -0.16871;1.00000
 738.627;   72.05000;    -0.16866;1.00000
 739.716;   72.16000;    -0.16865;1.00000
 740.825;   72.27000;    -0.16862;1.00000
 741.93;   72.38000;    -0.16853;1.00000
 743.029;   72.49000;    -0.16856;1.00000
 744.127;   72.60000;    -0.16848;1.00000
 745.231;   72.71000;    -0.16843;1.00000
 746.336;   72.82000;    -0.16835;1.00000
 747.434;   72.93000;    -0.16836;1.00000
 748.531;   73.04000;    -0.16835;1.00000
 749.64;   73.15000;    -0.16831;1.00000
 750.737;   73.26000;    -0.16823;1.00000
 751.829;   73.37000;    -0.16819;1.00000
 752.938;   73.48000;    -0.16814;1.00000
 754.034;   73.59000;    -0.16813;1.00000
 755.134;   73.70000;    -0.16806;1.00000
 756.246;   73.81000;    -0.16805;1.00000
 757.331;   73.92000;    -0.16801;1.00000
 758.437;   74.03000;    -0.16793;1.00000
 759.538;   74.14000;    -0.16792;1.00000
 760.641;   74.25000;    -0.16789;1.00000
 761.738;   74.36000;    -0.16787;1.00000
 762.841;   74.47000;    -0.16780;1.00000
 763.945;   74.58000;    -0.16774;1.00000
 765.051;   74.69000;    -0.16769;1.00000
 766.153;   74.80000;    -0.16767;1.00000
 767.248;   74.91000;    -0.16767;1.00000
 768.353;   75.02000;    -0.16762;1.00000
 769.457;   75.13000;    -0.16754;1.00000
 770.561;   75.24000;    -0.16752;1.00000
 771.647;   75.35000;    -0.16746;1.00000
 772.761;   75.46000;    -0.16745;1.00000
 773.865;   75.57000;    -0.16736;1.00000
 774.969;   75.68000;    -0.16730;1.00000
 776.053;   75.79000;    -0.16738;1.00000
 777.154;   75.90000;    -0.16729;1.00000
 778.265;   76.01000;    -0.16730;1.00000
 779.362;   76.12000;    -0.16725;1.00000
 780.46;   76.23000;    -0.16717;1.00000
 781.561;   76.34000;    -0.16710;1.00000
 782.671;   76.45000;    -0.16706;1.00000
 783.765;   76.56000;    -0.16700;1.00000
 784.866;   76.67000;    -0.16696;1.00000
 785.967;   76.78000;    -0.16693;1.00000
 787.073;   76.89000;    -0.16689;1.00000
 788.166;   77.00000;    -0.16683;1.00000
 789.277;   77.11000;    -0.16680;1.00000
 790.365;   77.22000;    -0.16677;1.00000
 791.476;   77.33000;    -0.16671;1.00000
 792.572;   77.44000;    -0.16663;1.00000
 793.675;   77.55000;    -0.16658;1.00000
 794.774;   77.66000;    -0.16657;1.00000
 795.875;   77.77000;    -0.16642;1.00000
 796.98;   77.88000;    -0.16641;1.00000
 798.072;   77.99000;    -0.16635;1.00000
 799.185;   78.10000;    -0.16633;1.00000
 800.285;   78.21000;    -0.16625;1.00000
 801.38;   78.32000;    -0.16626;1.00000
 802.485;   78.43000;    -0.16622;1.00000
 803.587;   78.54000;    -0.16614;1.00000
 804.686;   78.65000;    -0.16615;1.00000
 805.785;   78.76000;    -0.16615;1.00000
 806.879;   78.87000;    -0.16614;1.00000
 807.979;   78.98000;    -0.16608;1.00000
 809.093;   79.09000;    -0.16608;1.00000
 810.185;   79.20000;    -0.16596;1.00000
 811.279;   79.31000;    -0.16594;1.00000
 812.387;   79.42000;    -0.16592;1.00000
 813.492;   79.53000;    -0.16595;1.00000
 814.597;   79.64000;    -0.16586;1.00000
 815.701;   79.75000;    -0.16584;1.00000
 816.799;   79.86000;    -0.16583;1.00000
 817.902;   79.97000;    -0.16573;1.00000
 818.997;   80.08000;    -0.16574;1.00000
 820.107;   80.19000;    -0.16573;1.00000
 821.213;   80.30000;    -0.16561;1.00000
 822.298;   80.41000;    -0.16560;1.00000
 823.41;   80.52000;    -0.16558;1.00000
 824.513;   80.63000;    -0.16544;1.00000
 825.606;   80.74000;    -0.16549;1.00000
 826.709;   80.85000;    -0.16545;1.00000
 827.817;   80.96000;    -0.16534;1.00000
 828.922;   81.07000;    -0.16532;1.00000
 830.013;   81.18000;    -0.16537;1.00000
 831.116;   81.29000;    -0.16534;1.00000
 832.213;   81.40000;    -0.16532;1.00000
 833.326;   81.51000;    -0.16531;1.00000
 834.422;   81.62000;    -0.16532;1.00000
 835.533;   81.73000;    -0.16529;1.00000
 836.622;   81.84000;    -0.16526;1.00000
 837.737;   81.95000;    -0.16528;1.00000
 838.833;   82.06000;    -0.16527;1.00000
 839.931;   82.17000;    -0.16527;1.00000
 841.039;   82.28000;    -0.16523;1.00000
 842.148;   82.39000;    -0.16526;1.00000
 843.245;   82.50000;    -0.16531;1.00000
 844.351;   82.61000;    -0.16530;1.00000
 845.46;   82.72000;    -0.16523;1.00000
 846.55;   82.83000;    -0.16526;1.00000
 847.655;   82.94000;    -0.16529;1.00000
 848.757;   83.05000;    -0.16531;1.00000
 849.858;   83.16000;    -0.16529;1.00000
 850.947;   83.27000;    -0.16529;1.00000
 852.053;   83.38000;    -0.16530;1.00000
 853.162;   83.49000;    -0.16536;1.00000
 854.257;   83.60000;    -0.16542;1.00000
 855.366;   83.71000;    -0.16539;1.00000
 856.461;   83.82000;    -0.16541;1.00000
 857.559;   83.93000;    -0.16547;1.00000
 858.667;   84.04000;    -0.16551;1.00000
 859.784;   84.15000;    -0.16550;1.00000
 860.885;   84.26000;    -0.16554;1.00000
 861.983;   84.37000;    -0.16555;1.00000
 863.083;   84.48000;    -0.16557;1.00000
 864.183;   84.59000;    -0.16563;1.00000
 865.291;   84.70000;    -0.16568;1.00000
 866.391;   84.81000;    -0.16572;1.00000
 867.494;   84.92000;    -0.16578;1.00000
 868.589;   85.03000;    -0.16584;1.00000
 869.702;   85.14000;    -0.16582;1.00000
 870.788;   85.25000;    -0.16589;1.00000
 871.891;   85.36000;    -0.16591;1.00000
 872.994;   85.47000;    -0.16595;1.00000
 874.099;   85.58000;    -0.16595;1.00000
 875.205;   85.69000;    -0.16599;1.00000
 876.293;   85.80000;    -0.16604;1.00000
 877.4;   85.91000;    -0.16608;1.00000
 878.508;   86.02000;    -0.16613;1.00000
 879.607;   86.13000;    -0.16613;1.00000
 880.713;   86.24000;    -0.16619;1.00000
 881.82;   86.35000;    -0.16617;1.00000
 882.923;   86.46000;    -0.16627;1.00000
 884.015;   86.57000;    -0.16630;1.00000
 885.127;   86.68000;    -0.16631;1.00000
 886.221;   86.79000;    -0.16635;1.00000
 887.319;   86.90000;    -0.16638;1.00000
 888.421;   87.01000;    -0.16630;1.00000
 889.53;   87.12000;    -0.16636;1.00000
 890.629;   87.23000;    -0.16630;1.00000
 891.733;   87.34000;    -0.16634;1.00000
 892.831;   87.45000;    -0.16633;1.00000
 893.935;   87.56000;    -0.16631;1.00000
 895.04;   87.67000;    -0.16630;1.00000
 896.14;   87.78000;    -0.16628;1.00000
 897.246;   87.89000;    -0.16627;1.00000
 898.347;   88.00000;    -0.16621;1.00000
 899.438;   88.11000;    -0.16623;1.00000
 900.538;   88.22000;    -0.16617;1.00000
 901.644;   88.33000;    -0.16608;1.00000
 902.746;   88.44000;    -0.16595;1.00000
 903.847;   88.55000;    -0.16590;1.00000
 904.955;   88.66000;    -0.16578;1.00000
 906.059;   88.77000;    -0.16568;1.00000
 907.165;   88.88000;    -0.16560;1.00000
 908.267;   88.99000;    -0.16550;1.00000
 909.368;   89.10000;    -0.16534;1.00000
 910.467;   89.21000;    -0.16518;1.00000
 911.569;   89.32000;    -0.16500;1.00000
 912.669;   89.43000;    -0.16489;1.00000
 913.78;   89.54000;    -0.16469;1.00000
 914.878;   89.65000;    -0.16451;1.00000
 915.98;   89.76000;    -0.16437;1.00000
 917.082;   89.87000;    -0.16415;1.00000
 918.193;   89.98000;    -0.16397;1.00000
 919.295;   90.09000;    -0.16373;1.00000
 920.4;   90.20000;    -0.16356;1.00000
 921.495;   90.31000;    -0.16338;1.00000
 922.595;   90.42000;    -0.16323;1.00000
 923.704;   90.53000;    -0.16304;1.00000
 924.817;   90.64000;    -0.16286;1.00000
 925.922;   90.75000;    -0.16271;1.00000
 927.004;   90.86000;    -0.16258;1.00000
 928.118;   90.97000;    -0.16246;1.00000
 929.212;   91.08000;    -0.16234;1.00000
 930.322;   91.19000;    -0.16224;1.00000
 931.423;   91.30000;    -0.16213;1.00000
 932.526;   91.41000;    -0.16212;1.00000
 933.631;   91.52000;    -0.16205;1.00000
 934.733;   91.63000;    -0.16205;1.00000
 935.833;   91.74000;    -0.16207;1.00000
 936.944;   91.85000;    -0.16211;1.00000
 938.039;   91.96000;    -0.16215;1.00000
 939.139;   92.07000;    -0.16230;1.00000
 940.251;   92.18000;    -0.16240;1.00000
 941.347;   92.29000;    -0.16250;1.00000
 942.45;   92.40000;    -0.16261;1.00000
 943.556;   92.51000;    -0.16278;1.00000
 944.656;   92.62000;    -0.16299;1.00000
 945.758;   92.73000;    -0.16318;1.00000
 946.86;   92.84000;    -0.16340;1.00000
 947.957;   92.95000;    -0.16364;1.00000
 949.06;   93.06000;    -0.16383;1.00000
 950.162;   93.17000;    -0.16412;1.00000
 951.273;   93.28000;    -0.16438;1.00000
 952.355;   93.39000;    -0.16461;1.00000
 953.474;   93.50000;    -0.16496;1.00000
 954.578;   93.61000;    -0.16520;1.00000
 955.673;   93.72000;    -0.16550;1.00000
 956.767;   93.83000;    -0.16574;1.00000
 957.883;   93.94000;    -0.16602;1.00000
 958.966;   94.05000;    -0.16630;1.00000
 960.076;   94.16000;    -0.16660;1.00000
 961.186;   94.27000;    -0.16685;1.00000
 962.285;   94.38000;    -0.16712;1.00000
 963.384;   94.49000;    -0.16737;1.00000
 964.486;   94.60000;    -0.16764;1.00000
 965.589;   94.71000;    -0.16780;1.00000
 966.695;   94.82000;    -0.16804;1.00000
 967.791;   94.93000;    -0.16831;1.00000
 968.894;   95.04000;    -0.16852;1.00000
 970.003;   95.15000;    -0.16872;1.00000
 971.099;   95.26000;    -0.16892;1.00000
 972.2;   95.37000;    -0.16916;1.00000
 973.313;   95.48000;    -0.16936;1.00000
 974.41;   95.59000;    -0.16957;1.00000
 975.511;   95.70000;    -0.16972;1.00000
 976.612;   95.81000;    -0.16991;1.00000
 977.721;   95.92000;    -0.17006;1.00000
 978.822;   96.03000;    -0.17021;1.00000
 979.916;   96.14000;    -0.17036;1.00000
 981.025;   96.25000;    -0.17056;1.00000
 982.128;   96.36000;    -0.17062;1.00000
 983.223;   96.47000;    -0.17076;1.00000
 984.327;   96.58000;    -0.17097;1.00000
 985.428;   96.69000;    -0.17100;1.00000
 986.535;   96.80000;    -0.17113;1.00000
 987.641;   96.91000;    -0.17121;1.00000
 988.734;   97.02000;    -0.17135;1.00000
 989.846;   97.13000;    -0.17145;1.00000
 990.946;   97.24000;    -0.17156;1.00000
 992.049;   97.35000;    -0.17167;1.00000
 993.156;   97.46000;    -0.17187;1.00000
 994.251;   97.57000;    -0.17194;1.00000
 995.355;   97.68000;    -0.17206;1.00000
 996.45;   97.79000;    -0.17216;1.00000
 997.559;   97.90000;    -0.17231;1.00000
 998.666;   98.01000;    -0.17238;1.00000
 999.764;   98.12000;    -0.17249;1.00000
1000.87;   98.23000;    -0.17260;1.00000
1001.97;   98.34000;    -0.17270;1.00000
1003.08;   98.45000;    -0.17282;1.00000
1004.18;   98.56000;    -0.17291;1.00000
1005.29;   98.67000;    -0.17313;1.00000
1006.38;   98.78000;    -0.17319;1.00000
1007.49;   98.89000;    -0.17329;1.00000
1008.59;   99.00000;    -0.17337;1.00000
1009.7;   99.11000;    -0.17347;1.00000
1010.8;   99.22000;    -0.17362;1.00000
1011.9;   99.33000;    -0.17363;1.00000
1013.01;   99.44000;    -0.17380;1.00000
1014.1;   99.55000;    -0.17397;1.00000
1015.21;   99.66000;    -0.17411;1.00000
1016.32;   99.77000;    -0.17419;1.00000
1017.42;   99.88000;    -0.17427;1.00000
1018.52;   99.99000;    -0.17440;1.00000
1019.62;  100.1;    -0.17454;1.00000
1020.74;  100.21;    -0.17476;1.00000
1021.84;  100.32;    -0.17501;1.00000
1022.94;  100.43;    -0.17526;1.00000
1024.04;  100.54;    -0.17558;1.00000
1025.15;  100.65;    -0.17594;1.00000
1026.25;  100.76;    -0.17631;1.00000
1027.36;  100.87;    -0.17686;1.00000
1028.46;  100.98;    -0.17748;1.00000
1029.57;  101.09;    -0.17816;1.00000
1030.67;  101.2;    -0.17900;1.00000
1031.77;  101.31;    -0.17994;1.00000
1032.88;  101.42;    -0.18099;1.00000
1033.98;  101.53;    -0.18222;1.00000
1035.08;  101.64;    -0.18368;1.00000
1036.18;  101.75;    -0.18528;1.00000
1037.29;  101.86;    -0.18720;1.00000
1038.39;  101.97;    -0.18934;1.00000
1039.5;  102.08;    -0.19177;1.00000
1040.6;  102.19;    -0.19452;1.00000
1041.71;  102.3;    -0.19756;1.00000
1042.82;  102.41;    -0.20093;1.00000
1043.91;  102.52;    -0.20471;1.00000
1045.03;  102.63;    -0.20887;1.00000
1046.13;  102.74;    -0.21347;1.00000
1047.25;  102.85;    -0.21839;1.00000
1048.35;  102.96;    -0.22371;1.00000
1049.45;  103.07;    -0.22942;1.00000
1050.56;  103.18;    -0.23550;1.00000
1051.67;  103.29;    -0.24175;1.00000
1052.78;  103.4;    -0.24758;1.00000
1053.89;  103.51;    -0.25243;1.00000
1054.99;  103.62;    -0.25570;1.00000
1056.1;  103.73;    -0.25763;1.00000
1057.21;  103.84;    -0.25850;1.00000
1058.31;  103.95;    -0.25844;1.00000
1059.42;  104.06;    -0.25774;1.00000
1060.52;  104.17;    -0.25637;1.00000
1061.62;  104.28;    -0.25444;1.00000
1062.73;  104.39;    -0.25217;1.00000
1063.84;  104.5;    -0.24949;1.00000
1064.93;  104.61;    -0.24660;1.00000
1066.04;  104.72;    -0.24356;1.00000
1067.12;  104.83;    -0.24049;1.00000
1068.22;  104.94;    -0.23736;1.00000
1069.31;  105.05;    -0.23443;1.00000
1070.4;  105.16;    -0.23143;1.00000
1071.5;  105.27;    -0.22859;1.00000
1072.59;  105.38;    -0.22595;1.00000
1073.69;  105.49;    -0.22331;1.00000
1074.79;  105.6;    -0.22091;1.00000
1075.89;  105.71;    -0.21861;1.00000
1076.99;  105.82;    -0.21650;1.00000
1078.08;  105.93;    -0.21448;1.00000
1079.18;  106.04;    -0.21256;1.00000
1080.28;  106.15;    -0.21080;1.00000
1081.38;  106.26;    -0.20920;1.00000
1082.46;  106.37;    -0.20771;1.00000
1083.57;  106.48;    -0.20633;1.00000
1084.68;  106.59;    -0.20502;1.00000
1085.78;  106.7;    -0.20383;1.00000
1086.87;  106.81;    -0.20275;1.00000
1087.98;  106.92;    -0.20180;1.00000
1089.08;  107.03;    -0.20085;1.00000
1090.18;  107.14;    -0.20010;1.00000
1091.29;  107.25;    -0.19939;1.00000
1092.39;  107.36;    -0.19875;1.00000
1093.49;  107.47;    -0.19819;1.00000
1094.57;  107.58;    -0.19767;1.00000
1095.69;  107.69;    -0.19723;1.00000
1096.8;  107.8;    -0.19677;1.00000
1097.91;  107.91;    -0.19656;1.00000
1099.01;  108.02;    -0.19619;1.00000
1100.11;  108.13;    -0.19605;1.00000
1101.22;  108.24;    -0.19577;1.00000
1102.33;  108.35;    -0.19566;1.00000
1103.43;  108.46;    -0.19554;1.00000
1104.53;  108.57;    -0.19546;1.00000
1105.64;  108.68;    -0.19544;1.00000
1106.74;  108.79;    -0.19545;1.00000
1107.85;  108.9;    -0.19543;1.00000
1108.95;  109.01;    -0.19540;1.00000
1110.05;  109.12;    -0.19539;1.00000
1111.17;  109.23;    -0.19541;1.00000
1112.26;  109.34;    -0.19542;1.00000
1113.38;  109.45;    -0.19540;1.00000
1114.47;  109.56;    -0.19542;1.00000
1115.58;  109.67;    -0.19555;1.00000
1116.67;  109.78;    -0.19559;1.00000
1117.77;  109.89;    -0.19563;1.00000
1118.88;  110;    -0.19575;1.00000
1119.98;  110.11;    -0.19573;1.00000
1121.09;  110.22;    -0.19588;1.00000
1122.19;  110.33;    -0.19593;1.00000
1123.3;  110.44;    -0.19601;1.00000
1124.39;  110.55;    -0.19608;1.00000
1125.51;  110.66;    -0.19628;1.00000
1126.61;  110.77;    -0.19626;1.00000
1127.7;  110.88;    -0.19634;1.00000
1128.81;  110.99;    -0.19631;1.00000
1129.92;  111.1;    -0.19641;1.00000
1131.02;  111.21;    -0.19642;1.00000
1132.12;  111.32;    -0.19652;1.00000
1133.23;  111.43;    -0.19658;1.00000
1134.33;  111.54;    -0.19659;1.00000
1135.44;  111.65;    -0.19662;1.00000
1136.54;  111.76;    -0.19659;1.00000
1137.65;  111.87;    -0.19667;1.00000
1138.75;  111.98;    -0.19666;1.00000
1139.85;  112.09;    -0.19670;1.00000
1140.95;  112.2;    -0.19684;1.00000
1142.05;  112.31;    -0.19689;1.00000
1143.15;  112.42;    -0.19693;1.00000
1144.27;  112.53;    -0.19702;1.00000
1145.38;  112.64;    -0.19697;1.00000
1146.47;  112.75;    -0.19707;1.00000
1147.58;  112.86;    -0.19713;1.00000
1148.69;  112.97;    -0.19714;1.00000
1149.78;  113.08;    -0.19719;1.00000
1150.9;  113.19;    -0.19727;1.00000
1152;  113.3;    -0.19733;1.00000
1153.1;  113.41;    -0.19735;1.00000
1154.2;  113.52;    -0.19751;1.00000
1155.31;  113.63;    -0.19757;1.00000
1156.41;  113.74;    -0.19770;1.00000
1157.52;  113.85;    -0.19774;1.00000
1158.62;  113.96;    -0.19782;1.00000
1159.72;  114.07;    -0.19789;1.00000
1160.82;  114.18;    -0.19788;1.00000
1161.92;  114.29;    -0.19795;1.00000
1163.03;  114.4;    -0.19804;1.00000
1164.12;  114.51;    -0.19811;1.00000
1165.23;  114.62;    -0.19809;1.00000
1166.33;  114.73;    -0.19819;1.00000
1167.43;  114.84;    -0.19830;1.00000
1168.54;  114.95;    -0.19833;1.00000
1169.64;  115.06;    -0.19844;1.00000
1170.73;  115.17;    -0.19844;1.00000
1171.84;  115.28;    -0.19851;1.00000
1172.94;  115.39;    -0.19857;1.00000
1174.04;  115.5;    -0.19861;1.00000
1175.15;  115.61;    -0.19866;1.00000
1176.25;  115.72;    -0.19875;1.00000
1177.35;  115.83;    -0.19864;1.00000
1178.46;  115.94;    -0.19877;1.00000
1179.55;  116.05;    -0.19883;1.00000
1180.66;  116.16;    -0.19894;1.00000
1181.76;  116.27;    -0.19898;1.00000
1182.86;  116.38;    -0.19912;1.00000
1183.97;  116.49;    -0.19925;1.00000
1185.07;  116.6;    -0.19934;1.00000
1186.17;  116.71;    -0.19939;1.00000
1187.28;  116.82;    -0.19951;1.00000
1188.37;  116.93;    -0.19961;1.00000
1189.48;  117.04;    -0.19965;1.00000
1190.58;  117.15;    -0.19979;1.00000
1191.69;  117.26;    -0.19991;1.00000
1192.79;  117.37;    -0.19999;1.00000
1193.9;  117.48;    -0.20005;1.00000
1194.99;  117.59;    -0.20018;1.00000
1196.09;  117.7;    -0.20024;1.00000
1197.19;  117.81;    -0.20034;1.00000
1198.31;  117.92;    -0.20042;1.00000
1199.4;  118.03;    -0.20057;1.00000
1200.5;  118.14;    -0.20065;1.00000
1201.6;  118.25;    -0.20074;1.00000
1202.71;  118.36;    -0.20082;1.00000
1203.8;  118.47;    -0.20089;1.00000
1204.91;  118.58;    -0.20102;1.00000
1206.01;  118.69;    -0.20115;1.00000
1207.11;  118.8;    -0.20122;1.00000
1208.2;  118.91;    -0.20132;1.00000
1209.31;  119.02;    -0.20141;1.00000
1210.41;  119.13;    -0.20142;1.00000
1211.51;  119.24;    -0.20154;1.00000
1212.62;  119.35;    -0.20158;1.00000
1213.73;  119.46;    -0.20174;1.00000
1214.82;  119.57;    -0.20183;1.00000
1215.93;  119.68;    -0.20195;1.00000
1217.03;  119.79;    -0.20202;1.00000
1218.13;  119.9;    -0.20217;1.00000
1219.24;  120.01;    -0.20227;1.00000
1220.33;  120.12;    -0.20230;1.00000
1221.44;  120.23;    -0.20242;1.00000
1222.54;  120.34;    -0.20259;1.00000
1223.64;  120.45;    -0.20266;1.00000
1224.74;  120.56;    -0.20274;1.00000
1225.85;  120.67;    -0.20291;1.00000
1226.95;  120.78;    -0.20302;1.00000
1228.04;  120.89;    -0.20306;1.00000
1229.14;  121;    -0.20323;1.00000
1230.26;  121.11;    -0.20343;1.00000
1231.35;  121.22;    -0.20361;1.00000
1232.45;  121.33;    -0.20378;1.00000
1233.57;  121.44;    -0.20390;1.00000
1234.66;  121.55;    -0.20413;1.00000
1235.77;  121.66;    -0.20423;1.00000
1236.86;  121.77;    -0.20445;1.00000
1237.97;  121.88;    -0.20460;1.00000
1239.07;  121.99;    -0.20482;1.00000
1240.17;  122.1;    -0.20517;1.00000
1241.27;  122.21;    -0.20547;1.00000
1242.38;  122.32;    -0.20576;1.00000
1243.47;  122.43;    -0.20598;1.00000
1244.57;  122.54;    -0.20617;1.00000
1245.68;  122.65;    -0.20636;1.00000
1246.78;  122.76;    -0.20650;1.00000
1247.89;  122.87;    -0.20665;1.00000
1248.99;  122.98;    -0.20683;1.00000
1250.08;  123.09;    -0.20695;1.00000
1251.19;  123.2;    -0.20708;1.00000
1252.29;  123.31;    -0.20723;1.00000
1253.4;  123.42;    -0.20741;1.00000
1254.49;  123.53;    -0.20759;1.00000
1255.59;  123.64;    -0.20779;1.00000
1256.7;  123.75;    -0.20795;1.00000
1257.81;  123.86;    -0.20829;1.00000
1258.9;  123.97;    -0.20853;1.00000
1260;  124.08;    -0.20871;1.00000
1261.11;  124.19;    -0.20886;1.00000
1262.21;  124.3;    -0.20904;1.00000
1263.31;  124.41;    -0.20923;1.00000
1264.4;  124.52;    -0.20931;1.00000
1265.51;  124.63;    -0.20938;1.00000
1266.61;  124.74;    -0.20946;1.00000
1267.72;  124.85;    -0.20951;1.00000
1268.81;  124.96;    -0.20956;1.00000
1269.92;  125.07;    -0.20965;1.00000
1271.03;  125.18;    -0.20960;1.00000
1272.13;  125.29;    -0.20966;1.00000
1273.23;  125.4;    -0.20979;1.00000
1274.33;  125.51;    -0.20989;1.00000
1275.44;  125.62;    -0.21002;1.00000
1276.55;  125.73;    -0.21028;1.00000
1277.65;  125.84;    -0.21046;1.00000
1278.76;  125.95;    -0.21072;1.00000
1279.87;  126.06;    -0.21099;1.00000
1280.96;  126.17;    -0.21129;1.00000
1282.07;  126.28;    -0.21149;1.00000
1283.18;  126.39;    -0.21164;1.00000
1284.29;  126.5;    -0.21195;1.00000
1285.39;  126.61;    -0.21209;1.00000
1286.49;  126.72;    -0.21228;1.00000
1287.6;  126.83;    -0.21241;1.00000
1288.7;  126.94;    -0.21251;1.00000
1289.8;  127.05;    -0.21259;1.00000
1290.9;  127.16;    -0.21275;1.00000
1292;  127.27;    -0.21289;1.00000
1293.1;  127.38;    -0.21298;1.00000
1294.19;  127.49;    -0.21305;1.00000
1295.31;  127.6;    -0.21317;1.00000
1296.4;  127.71;    -0.21333;1.00000
1297.49;  127.82;    -0.21352;1.00000
1298.6;  127.93;    -0.21361;1.00000
1299.2;  127.99;    -0.21366;1.00000