File: charts/20230801/DTA/SATURADAS/Cs-STD 5A.txt
#FILE:                       ;DTA-MARIANA-5AS.ngb-dd9
#FORMAT:                     ;NETZSCH5
#IDENTITY:                   ;Mariana
#DECIMAL:                    ;POINT
#SEPARATOR:                  ;SEMICOLON
#MTYPE:                      ;DTA
#INSTRUMENT:                 ;NETZSCH DSC 404F3
#PROJECT:                    ;Mariana
#DATE/TIME:                  ;02/06/2023 09:16:10
#CORR. FILE:                 ;Branco_Mariana_01-06-23.ngb-bd9
#LABORATORY:                 ;DSC/DTA
#OPERATOR:                   ;Pamela
#REMARK:                     ;Mariana
#SAMPLE:                     ;5AS
#SAMPLE MASS /mg:            ;286.9
#MATERIAL:                   ;B2O3
#REFERENCE:                  ;Empty
#REFERENCE MASS /mg:         ;0
#TYPE OF CRUCIBLE:           ;DTA/TG crucible Al2O3
#SAMPLE CRUCIBLE MASS /mg:   ;1351.2
#REFERENCE CRUCIBLE MASS /mg:;1349.29
#CORR. CODE:                 ;020
#EXO:                        ;-1
#RANGE:                      ;20/10.0(K/min)/1300
#SEGMENT:                    ;S1/1

##Temp./øC;Time/min;DTA/(uV/mg);Sensit./(uV/mW)
  17.47500;0.0000e+000;-2.7869e-003;1.00000
  17.48500;    0.11000;-2.6273e-003;1.00000
  17.45500;    0.22000;-2.5103e-003;1.00000
  17.47300;    0.33000;-2.3960e-003;1.00000
  17.45600;    0.44000;-2.2444e-003;1.00000
  17.51800;    0.55000;-2.1088e-003;1.00000
  17.54900;    0.66000;-1.9865e-003;1.00000
  17.60400;    0.77000;-1.8083e-003;1.00000
  17.70400;    0.88000;-1.6248e-003;1.00000
  17.80900;    0.99000;-1.3908e-003;1.00000
  17.93400;    1.10000;-1.1089e-003;1.00000
  18.10900;    1.21000;-8.0575e-004;1.00000
  18.29900;    1.32000;-4.4144e-004;1.00000
  18.50000;    1.43000;-1.8615e-005;1.00000
  18.71000;    1.54000; 4.3080e-004;1.00000
  18.95000;    1.65000; 9.5467e-004;1.00000
  19.21600;    1.76000; 1.4732e-003;1.00000
  19.50700;    1.87000; 2.0503e-003;1.00000
  19.83000;    1.98000; 2.6646e-003;1.00000
  20.16000;    2.09000; 3.2842e-003;1.00000
  20.51900;    2.20000; 3.9729e-003;1.00000
  20.89200;    2.31000; 4.6670e-003;1.00000
  21.26600;    2.42000; 5.3345e-003;1.00000
  21.67000;    2.53000; 6.0897e-003;1.00000
  22.12600;    2.64000; 6.7944e-003;1.00000
  22.54300;    2.75000; 7.5363e-003;1.00000
  23.04000;    2.86000; 8.2570e-003;1.00000
  23.55400;    2.97000; 9.0202e-003;1.00000
  24.05900;    3.08000; 9.7621e-003;1.00000
  24.61900;    3.19000; 1.0515e-002;1.00000
  25.19600;    3.30000; 1.1283e-002;1.00000
  25.77800;    3.41000; 1.2044e-002;1.00000
  26.41500;    3.52000; 1.2820e-002;1.00000
  27.05000;    3.63000; 1.3565e-002;1.00000
  27.73000;    3.74000; 1.4328e-002;1.00000
  28.43800;    3.85000; 1.5115e-002;1.00000
  29.18400;    3.96000; 1.5897e-002;1.00000
  29.93600;    4.07000; 1.6745e-002;1.00000
  30.70100;    4.18000; 1.7546e-002;1.00000
  31.51900;    4.29000; 1.8365e-002;1.00000
  32.37300;    4.40000; 1.9187e-002;1.00000
  33.25100;    4.51000; 2.0014e-002;1.00000
  34.13400;    4.62000; 2.0872e-002;1.00000
  35.04100;    4.73000; 2.1742e-002;1.00000
  36.00300;    4.84000; 2.2596e-002;1.00000
  36.94500;    4.95000; 2.3495e-002;1.00000
  37.94900;    5.06000; 2.4383e-002;1.00000
  38.98700;    5.17000; 2.5282e-002;1.00000
  40.05000;    5.28000; 2.6199e-002;1.00000
  41.09600;    5.39000; 2.7077e-002;1.00000
  42.19200;    5.50000; 2.7978e-002;1.00000
  43.32300;    5.61000; 2.8898e-002;1.00000
  44.46300;    5.72000; 2.9797e-002;1.00000
  45.63300;    5.83000; 3.0733e-002;1.00000
  46.82600;    5.94000; 3.1619e-002;1.00000
  48.04500;    6.05000; 3.2523e-002;1.00000
  49.27400;    6.16000; 3.3408e-002;1.00000
  50.52800;    6.27000; 3.4366e-002;1.00000
  51.81400;    6.38000; 3.5288e-002;1.00000
  53.10800;    6.49000; 3.6206e-002;1.00000
  54.43600;    6.60000; 3.7174e-002;1.00000
  55.76900;    6.71000; 3.8081e-002;1.00000
  57.13700;    6.82000; 3.9033e-002;1.00000
  58.53100;    6.93000; 4.0000e-002;1.00000
  59.94000;    7.04000; 4.0952e-002;1.00000
  61.35300;    7.15000; 4.1947e-002;1.00000
  62.77700;    7.26000; 4.2894e-002;1.00000
  64.25800;    7.37000; 4.3896e-002;1.00000
  65.72200;    7.48000; 4.4912e-002;1.00000
  67.19400;    7.59000; 4.5968e-002;1.00000
  68.69400;    7.70000; 4.7029e-002;1.00000
  70.17300;    7.81000; 4.8055e-002;1.00000
  71.71700;    7.92000; 4.9167e-002;1.00000
  73.22600;    8.03000; 5.0225e-002;1.00000
  74.78500;    8.14000; 5.1345e-002;1.00000
  76.32000;    8.25000; 5.2414e-002;1.00000
  77.87900;    8.36000; 5.3539e-002;1.00000
  79.46700;    8.47000; 5.4674e-002;1.00000
  81.02200;    8.58000; 5.5815e-002;1.00000
  82.61900;    8.69000; 5.7038e-002;1.00000
  84.22800;    8.80000; 5.8293e-002;1.00000
  85.82200;    8.91000; 5.9573e-002;1.00000
  87.44900;    9.02000; 6.0844e-002;1.00000
  89.07400;    9.13000; 6.2149e-002;1.00000
  90.67500;    9.24000; 6.3530e-002;1.00000
  92.35300;    9.35000; 6.4950e-002;1.00000
  94.00000;    9.46000; 6.6324e-002;1.00000
  95.63900;    9.57000; 6.7760e-002;1.00000
  97.26800;    9.68000; 6.9279e-002;1.00000
  98.93100;    9.79000; 7.0819e-002;1.00000
 100.582;    9.90000; 7.2380e-002;1.00000
 102.241;   10.01000; 7.3967e-002;1.00000
 103.876;   10.12000; 7.5611e-002;1.00000
 105.536;   10.23000; 7.7283e-002;1.00000
 107.166;   10.34000; 7.8988e-002;1.00000
 108.822;   10.45000; 8.0698e-002;1.00000
 110.482;   10.56000; 8.2458e-002;1.00000
 112.089;   10.67000; 8.4211e-002;1.00000
 113.731;   10.78000; 8.5992e-002;1.00000
 115.358;   10.89000; 8.7817e-002;1.00000
 116.992;   11.00000; 8.9638e-002;1.00000
 118.616;   11.11000; 9.1428e-002;1.00000
 120.216;   11.22000; 9.3209e-002;1.00000
 121.813;   11.33000; 9.5036e-002;1.00000
 123.451;   11.44000; 9.6847e-002;1.00000
 125.051;   11.55000; 9.8586e-002;1.00000
 126.662;   11.66000;     0.10035;1.00000
 128.244;   11.77000;     0.10209;1.00000
 129.825;   11.88000;     0.10383;1.00000
 131.41;   11.99000;     0.10555;1.00000
 133;   12.10000;     0.10718;1.00000
 134.577;   12.21000;     0.10878;1.00000
 136.154;   12.32000;     0.11039;1.00000
 137.697;   12.43000;     0.11196;1.00000
 139.256;   12.54000;     0.11344;1.00000
 140.785;   12.65000;     0.11495;1.00000
 142.327;   12.76000;     0.11633;1.00000
 143.863;   12.87000;     0.11770;1.00000
 145.378;   12.98000;     0.11901;1.00000
 146.905;   13.09000;     0.12030;1.00000
 148.391;   13.20000;     0.12151;1.00000
 149.866;   13.31000;     0.12264;1.00000
 151.361;   13.42000;     0.12378;1.00000
 152.822;   13.53000;     0.12481;1.00000
 154.289;   13.64000;     0.12581;1.00000
 155.737;   13.75000;     0.12672;1.00000
 157.182;   13.86000;     0.12764;1.00000
 158.613;   13.97000;     0.12847;1.00000
 160.045;   14.08000;     0.12925;1.00000
 161.468;   14.19000;     0.12998;1.00000
 162.87;   14.30000;     0.13061;1.00000
 164.266;   14.41000;     0.13129;1.00000
 165.657;   14.52000;     0.13183;1.00000
 167.015;   14.63000;     0.13239;1.00000
 168.39;   14.74000;     0.13286;1.00000
 169.752;   14.85000;     0.13331;1.00000
 171.099;   14.96000;     0.13373;1.00000
 172.416;   15.07000;     0.13408;1.00000
 173.756;   15.18000;     0.13445;1.00000
 175.066;   15.29000;     0.13483;1.00000
 176.382;   15.40000;     0.13511;1.00000
 177.683;   15.51000;     0.13540;1.00000
 178.968;   15.62000;     0.13560;1.00000
 180.255;   15.73000;     0.13584;1.00000
 181.528;   15.84000;     0.13603;1.00000
 182.79;   15.95000;     0.13621;1.00000
 184.056;   16.06000;     0.13637;1.00000
 185.304;   16.17000;     0.13649;1.00000
 186.551;   16.28000;     0.13661;1.00000
 187.788;   16.39000;     0.13673;1.00000
 189.015;   16.50000;     0.13682;1.00000
 190.238;   16.61000;     0.13686;1.00000
 191.461;   16.72000;     0.13690;1.00000
 192.667;   16.83000;     0.13698;1.00000
 193.86;   16.94000;     0.13700;1.00000
 195.061;   17.05000;     0.13701;1.00000
 196.253;   17.16000;     0.13698;1.00000
 197.418;   17.27000;     0.13698;1.00000
 198.592;   17.38000;     0.13698;1.00000
 199.761;   17.49000;     0.13691;1.00000
 200.929;   17.60000;     0.13683;1.00000
 202.046;   17.71000;     0.13673;1.00000
 203.206;   17.82000;     0.13666;1.00000
 204.348;   17.93000;     0.13651;1.00000
 205.472;   18.04000;     0.13639;1.00000
 206.588;   18.15000;     0.13622;1.00000
 207.728;   18.26000;     0.13602;1.00000
 208.826;   18.37000;     0.13582;1.00000
 209.941;   18.48000;     0.13561;1.00000
 211.048;   18.59000;     0.13533;1.00000
 212.146;   18.70000;     0.13507;1.00000
 213.257;   18.81000;     0.13477;1.00000
 214.346;   18.92000;     0.13442;1.00000
 215.426;   19.03000;     0.13409;1.00000
 216.502;   19.14000;     0.13372;1.00000
 217.594;   19.25000;     0.13327;1.00000
 218.661;   19.36000;     0.13286;1.00000
 219.739;   19.47000;     0.13234;1.00000
 220.804;   19.58000;     0.13183;1.00000
 221.881;   19.69000;     0.13127;1.00000
 222.921;   19.80000;     0.13066;1.00000
 223.983;   19.91000;     0.12998;1.00000
 225.045;   20.02000;     0.12927;1.00000
 226.083;   20.13000;     0.12849;1.00000
 227.145;   20.24000;     0.12770;1.00000
 228.203;   20.35000;     0.12679;1.00000
 229.244;   20.46000;     0.12588;1.00000
 230.296;   20.57000;     0.12486;1.00000
 231.34;   20.68000;     0.12379;1.00000
 232.388;   20.79000;     0.12269;1.00000
 233.422;   20.90000;     0.12149;1.00000
 234.462;   21.01000;     0.12020;1.00000
 235.491;   21.12000;     0.11889;1.00000
 236.519;   21.23000;     0.11747;1.00000
 237.569;   21.34000;     0.11597;1.00000
 238.608;   21.45000;     0.11445;1.00000
 239.642;   21.56000;     0.11279;1.00000
 240.671;   21.67000;     0.11109;1.00000
 241.695;   21.78000;     0.10934;1.00000
 242.732;   21.89000;     0.10744;1.00000
 243.761;   22.00000;     0.10551;1.00000
 244.801;   22.11000;     0.10349;1.00000
 245.846;   22.22000;     0.10136;1.00000
 246.86;   22.33000; 9.9166e-002;1.00000
 247.892;   22.44000; 9.6874e-002;1.00000
 248.927;   22.55000; 9.4552e-002;1.00000
 249.962;   22.66000; 9.2119e-002;1.00000
 250.992;   22.77000; 8.9590e-002;1.00000
 252.028;   22.88000; 8.7021e-002;1.00000
 253.064;   22.99000; 8.4381e-002;1.00000
 254.091;   23.10000; 8.1644e-002;1.00000
 255.123;   23.21000; 7.8876e-002;1.00000
 256.16;   23.32000; 7.6028e-002;1.00000
 257.199;   23.43000; 7.3127e-002;1.00000
 258.221;   23.54000; 7.0242e-002;1.00000
 259.274;   23.65000; 6.7282e-002;1.00000
 260.327;   23.76000; 6.4237e-002;1.00000
 261.342;   23.87000; 6.1187e-002;1.00000
 262.391;   23.98000; 5.8091e-002;1.00000
 263.436;   24.09000; 5.4972e-002;1.00000
 264.473;   24.20000; 5.1826e-002;1.00000
 265.51;   24.31000; 4.8651e-002;1.00000
 266.555;   24.42000; 4.5537e-002;1.00000
 267.613;   24.53000; 4.2378e-002;1.00000
 268.659;   24.64000; 3.9187e-002;1.00000
 269.688;   24.75000; 3.6006e-002;1.00000
 270.741;   24.86000; 3.2874e-002;1.00000
 271.785;   24.97000; 2.9704e-002;1.00000
 272.836;   25.08000; 2.6595e-002;1.00000
 273.896;   25.19000; 2.3471e-002;1.00000
 274.936;   25.30000; 2.0362e-002;1.00000
 275.986;   25.41000; 1.7320e-002;1.00000
 277.031;   25.52000; 1.4312e-002;1.00000
 278.087;   25.63000; 1.1328e-002;1.00000
 279.139;   25.74000; 8.3660e-003;1.00000
 280.196;   25.85000; 5.4355e-003;1.00000
 281.242;   25.96000; 2.5555e-003;1.00000
 282.298;   26.07000;-2.6327e-004;1.00000
 283.354;   26.18000;-3.0422e-003;1.00000
 284.413;   26.29000;-5.7892e-003;1.00000
 285.471;   26.40000;-8.4990e-003;1.00000
 286.515;   26.51000;-1.1161e-002;1.00000
 287.585;   26.62000;-1.3746e-002;1.00000
 288.643;   26.73000;-1.6285e-002;1.00000
 289.705;   26.84000;-1.8764e-002;1.00000
 290.769;   26.95000;-2.1208e-002;1.00000
 291.817;   27.06000;-2.3585e-002;1.00000
 292.883;   27.17000;-2.5922e-002;1.00000
 293.939;   27.28000;-2.8188e-002;1.00000
 295.005;   27.39000;-3.0401e-002;1.00000
 296.05;   27.50000;-3.2581e-002;1.00000
 297.123;   27.61000;-3.4714e-002;1.00000
 298.187;   27.72000;-3.6775e-002;1.00000
 299.258;   27.83000;-3.8828e-002;1.00000
 300.325;   27.94000;-4.0812e-002;1.00000
 301.391;   28.05000;-4.2763e-002;1.00000
 302.433;   28.16000;-4.4641e-002;1.00000
 303.528;   28.27000;-4.6492e-002;1.00000
 304.593;   28.38000;-4.8289e-002;1.00000
 305.643;   28.49000;-5.0095e-002;1.00000
 306.718;   28.60000;-5.1778e-002;1.00000
 307.799;   28.71000;-5.3438e-002;1.00000
 308.854;   28.82000;-5.5076e-002;1.00000
 309.935;   28.93000;-5.6645e-002;1.00000
 310.999;   29.04000;-5.8174e-002;1.00000
 312.074;   29.15000;-5.9703e-002;1.00000
 313.14;   29.26000;-6.1173e-002;1.00000
 314.203;   29.37000;-6.2580e-002;1.00000
 315.274;   29.48000;-6.3982e-002;1.00000
 316.356;   29.59000;-6.5343e-002;1.00000
 317.435;   29.70000;-6.6675e-002;1.00000
 318.511;   29.81000;-6.7965e-002;1.00000
 319.583;   29.92000;-6.9212e-002;1.00000
 320.66;   30.03000;-7.0468e-002;1.00000
 321.729;   30.14000;-7.1675e-002;1.00000
 322.794;   30.25000;-7.2834e-002;1.00000
 323.877;   30.36000;-7.3954e-002;1.00000
 324.942;   30.47000;-7.5089e-002;1.00000
 326.019;   30.58000;-7.6164e-002;1.00000
 327.09;   30.69000;-7.7219e-002;1.00000
 328.166;   30.80000;-7.8312e-002;1.00000
 329.239;   30.91000;-7.9283e-002;1.00000
 330.316;   31.02000;-8.0256e-002;1.00000
 331.392;   31.13000;-8.1283e-002;1.00000
 332.481;   31.24000;-8.2190e-002;1.00000
 333.547;   31.35000;-8.3123e-002;1.00000
 334.618;   31.46000;-8.4035e-002;1.00000
 335.708;   31.57000;-8.4881e-002;1.00000
 336.78;   31.68000;-8.5745e-002;1.00000
 337.862;   31.79000;-8.6591e-002;1.00000
 338.937;   31.90000;-8.7407e-002;1.00000
 340.01;   32.01000;-8.8189e-002;1.00000
 341.077;   32.12000;-8.8995e-002;1.00000
 342.164;   32.23000;-8.9779e-002;1.00000
 343.241;   32.34000;-9.0476e-002;1.00000
 344.33;   32.45000;-9.1194e-002;1.00000
 345.403;   32.56000;-9.1896e-002;1.00000
 346.494;   32.67000;-9.2571e-002;1.00000
 347.562;   32.78000;-9.3281e-002;1.00000
 348.645;   32.89000;-9.3885e-002;1.00000
 349.716;   33.00000;-9.4566e-002;1.00000
 350.805;   33.11000;-9.5172e-002;1.00000
 351.883;   33.22000;-9.5762e-002;1.00000
 352.959;   33.33000;-9.6345e-002;1.00000
 354.032;   33.44000;-9.6938e-002;1.00000
 355.13;   33.55000;-9.7467e-002;1.00000
 356.204;   33.66000;-9.8023e-002;1.00000
 357.289;   33.77000;-9.8520e-002;1.00000
 358.365;   33.88000;-9.9028e-002;1.00000
 359.453;   33.99000;-9.9557e-002;1.00000
 360.539;   34.10000;    -0.10007;1.00000
 361.61;   34.21000;    -0.10056;1.00000
 362.692;   34.32000;    -0.10103;1.00000
 363.782;   34.43000;    -0.10147;1.00000
 364.875;   34.54000;    -0.10196;1.00000
 365.952;   34.65000;    -0.10237;1.00000
 367.036;   34.76000;    -0.10275;1.00000
 368.126;   34.87000;    -0.10321;1.00000
 369.2;   34.98000;    -0.10359;1.00000
 370.291;   35.09000;    -0.10398;1.00000
 371.363;   35.20000;    -0.10435;1.00000
 372.46;   35.31000;    -0.10473;1.00000
 373.539;   35.42000;    -0.10508;1.00000
 374.634;   35.53000;    -0.10546;1.00000
 375.714;   35.64000;    -0.10575;1.00000
 376.812;   35.75000;    -0.10606;1.00000
 377.888;   35.86000;    -0.10641;1.00000
 378.976;   35.97000;    -0.10671;1.00000
 380.065;   36.08000;    -0.10702;1.00000
 381.145;   36.19000;    -0.10728;1.00000
 382.225;   36.30000;    -0.10760;1.00000
 383.32;   36.41000;    -0.10788;1.00000
 384.405;   36.52000;    -0.10815;1.00000
 385.491;   36.63000;    -0.10845;1.00000
 386.59;   36.74000;    -0.10874;1.00000
 387.681;   36.85000;    -0.10897;1.00000
 388.766;   36.96000;    -0.10922;1.00000
 389.846;   37.07000;    -0.10952;1.00000
 390.935;   37.18000;    -0.10975;1.00000
 392.026;   37.29000;    -0.10999;1.00000
 393.117;   37.40000;    -0.11026;1.00000
 394.191;   37.51000;    -0.11052;1.00000
 395.282;   37.62000;    -0.11072;1.00000
 396.388;   37.73000;    -0.11096;1.00000
 397.46;   37.84000;    -0.11121;1.00000
 398.558;   37.95000;    -0.11141;1.00000
 399.655;   38.06000;    -0.11164;1.00000
 400.73;   38.17000;    -0.11187;1.00000
 401.813;   38.28000;    -0.11208;1.00000
 402.903;   38.39000;    -0.11230;1.00000
 404.006;   38.50000;    -0.11254;1.00000
 405.089;   38.61000;    -0.11276;1.00000
 406.189;   38.72000;    -0.11294;1.00000
 407.272;   38.83000;    -0.11316;1.00000
 408.355;   38.94000;    -0.11337;1.00000
 409.457;   39.05000;    -0.11361;1.00000
 410.537;   39.16000;    -0.11376;1.00000
 411.619;   39.27000;    -0.11398;1.00000
 412.714;   39.38000;    -0.11419;1.00000
 413.814;   39.49000;    -0.11439;1.00000
 414.895;   39.60000;    -0.11460;1.00000
 415.986;   39.71000;    -0.11479;1.00000
 417.075;   39.82000;    -0.11499;1.00000
 418.172;   39.93000;    -0.11515;1.00000
 419.27;   40.04000;    -0.11533;1.00000
 420.358;   40.15000;    -0.11548;1.00000
 421.432;   40.26000;    -0.11569;1.00000
 422.533;   40.37000;    -0.11586;1.00000
 423.633;   40.48000;    -0.11605;1.00000
 424.719;   40.59000;    -0.11624;1.00000
 425.812;   40.70000;    -0.11642;1.00000
 426.9;   40.81000;    -0.11659;1.00000
 427.989;   40.92000;    -0.11675;1.00000
 429.096;   41.03000;    -0.11691;1.00000
 430.177;   41.14000;    -0.11708;1.00000
 431.264;   41.25000;    -0.11725;1.00000
 432.368;   41.36000;    -0.11740;1.00000
 433.461;   41.47000;    -0.11756;1.00000
 434.562;   41.58000;    -0.11773;1.00000
 435.648;   41.69000;    -0.11787;1.00000
 436.739;   41.80000;    -0.11798;1.00000
 437.817;   41.91000;    -0.11816;1.00000
 438.92;   42.02000;    -0.11829;1.00000
 440.014;   42.13000;    -0.11843;1.00000
 441.11;   42.24000;    -0.11860;1.00000
 442.213;   42.35000;    -0.11874;1.00000
 443.294;   42.46000;    -0.11887;1.00000
 444.379;   42.57000;    -0.11898;1.00000
 445.47;   42.68000;    -0.11911;1.00000
 446.57;   42.79000;    -0.11928;1.00000
 447.662;   42.90000;    -0.11942;1.00000
 448.75;   43.01000;    -0.11954;1.00000
 449.849;   43.12000;    -0.11969;1.00000
 450.938;   43.23000;    -0.11978;1.00000
 452.027;   43.34000;    -0.11995;1.00000
 453.122;   43.45000;    -0.12003;1.00000
 454.216;   43.56000;    -0.12014;1.00000
 455.306;   43.67000;    -0.12025;1.00000
 456.405;   43.78000;    -0.12037;1.00000
 457.502;   43.89000;    -0.12045;1.00000
 458.594;   44.00000;    -0.12058;1.00000
 459.681;   44.11000;    -0.12068;1.00000
 460.772;   44.22000;    -0.12082;1.00000
 461.868;   44.33000;    -0.12096;1.00000
 462.969;   44.44000;    -0.12106;1.00000
 464.065;   44.55000;    -0.12113;1.00000
 465.148;   44.66000;    -0.12122;1.00000
 466.25;   44.77000;    -0.12132;1.00000
 467.339;   44.88000;    -0.12141;1.00000
 468.441;   44.99000;    -0.12149;1.00000
 469.53;   45.10000;    -0.12159;1.00000
 470.621;   45.21000;    -0.12170;1.00000
 471.724;   45.32000;    -0.12176;1.00000
 472.803;   45.43000;    -0.12184;1.00000
 473.893;   45.54000;    -0.12198;1.00000
 474.991;   45.65000;    -0.12205;1.00000
 476.09;   45.76000;    -0.12213;1.00000
 477.187;   45.87000;    -0.12221;1.00000
 478.28;   45.98000;    -0.12230;1.00000
 479.371;   46.09000;    -0.12240;1.00000
 480.458;   46.20000;    -0.12245;1.00000
 481.565;   46.31000;    -0.12254;1.00000
 482.658;   46.42000;    -0.12258;1.00000
 483.744;   46.53000;    -0.12266;1.00000
 484.841;   46.64000;    -0.12275;1.00000
 485.943;   46.75000;    -0.12283;1.00000
 487.035;   46.86000;    -0.12294;1.00000
 488.141;   46.97000;    -0.12301;1.00000
 489.221;   47.08000;    -0.12307;1.00000
 490.325;   47.19000;    -0.12318;1.00000
 491.414;   47.30000;    -0.12325;1.00000
 492.508;   47.41000;    -0.12331;1.00000
 493.594;   47.52000;    -0.12339;1.00000
 494.7;   47.63000;    -0.12350;1.00000
 495.797;   47.74000;    -0.12354;1.00000
 496.882;   47.85000;    -0.12361;1.00000
 497.979;   47.96000;    -0.12367;1.00000
 499.073;   48.07000;    -0.12375;1.00000
 500.176;   48.18000;    -0.12384;1.00000
 501.268;   48.29000;    -0.12388;1.00000
 502.364;   48.40000;    -0.12394;1.00000
 503.454;   48.51000;    -0.12402;1.00000
 504.552;   48.62000;    -0.12411;1.00000
 505.65;   48.73000;    -0.12417;1.00000
 506.743;   48.84000;    -0.12421;1.00000
 507.837;   48.95000;    -0.12430;1.00000
 508.929;   49.06000;    -0.12437;1.00000
 510.03;   49.17000;    -0.12443;1.00000
 511.119;   49.28000;    -0.12451;1.00000
 512.226;   49.39000;    -0.12460;1.00000
 513.317;   49.50000;    -0.12464;1.00000
 514.412;   49.61000;    -0.12471;1.00000
 515.516;   49.72000;    -0.12478;1.00000
 516.606;   49.83000;    -0.12484;1.00000
 517.699;   49.94000;    -0.12493;1.00000
 518.797;   50.05000;    -0.12500;1.00000
 519.888;   50.16000;    -0.12507;1.00000
 520.994;   50.27000;    -0.12516;1.00000
 522.081;   50.38000;    -0.12522;1.00000
 523.181;   50.49000;    -0.12529;1.00000
 524.279;   50.60000;    -0.12535;1.00000
 525.373;   50.71000;    -0.12540;1.00000
 526.472;   50.82000;    -0.12546;1.00000
 527.565;   50.93000;    -0.12551;1.00000
 528.661;   51.04000;    -0.12556;1.00000
 529.767;   51.15000;    -0.12560;1.00000
 530.873;   51.26000;    -0.12566;1.00000
 531.965;   51.37000;    -0.12576;1.00000
 533.049;   51.48000;    -0.12581;1.00000
 534.154;   51.59000;    -0.12586;1.00000
 535.248;   51.70000;    -0.12596;1.00000
 536.35;   51.81000;    -0.12601;1.00000
 537.442;   51.92000;    -0.12606;1.00000
 538.539;   52.03000;    -0.12612;1.00000
 539.628;   52.14000;    -0.12615;1.00000
 540.734;   52.25000;    -0.12621;1.00000
 541.821;   52.36000;    -0.12629;1.00000
 542.925;   52.47000;    -0.12635;1.00000
 544.018;   52.58000;    -0.12639;1.00000
 545.113;   52.69000;    -0.12644;1.00000
 546.216;   52.80000;    -0.12654;1.00000
 547.307;   52.91000;    -0.12657;1.00000
 548.411;   53.02000;    -0.12662;1.00000
 549.509;   53.13000;    -0.12665;1.00000
 550.6;   53.24000;    -0.12673;1.00000
 551.708;   53.35000;    -0.12678;1.00000
 552.814;   53.46000;    -0.12683;1.00000
 553.901;   53.57000;    -0.12685;1.00000
 554.997;   53.68000;    -0.12691;1.00000
 556.098;   53.79000;    -0.12699;1.00000
 557.202;   53.90000;    -0.12701;1.00000
 558.289;   54.01000;    -0.12709;1.00000
 559.382;   54.12000;    -0.12714;1.00000
 560.487;   54.23000;    -0.12719;1.00000
 561.584;   54.34000;    -0.12720;1.00000
 562.681;   54.45000;    -0.12726;1.00000
 563.775;   54.56000;    -0.12732;1.00000
 564.874;   54.67000;    -0.12738;1.00000
 565.975;   54.78000;    -0.12739;1.00000
 567.067;   54.89000;    -0.12751;1.00000
 568.177;   55.00000;    -0.12757;1.00000
 569.272;   55.11000;    -0.12759;1.00000
 570.364;   55.22000;    -0.12773;1.00000
 571.463;   55.33000;    -0.12772;1.00000
 572.553;   55.44000;    -0.12756;1.00000
 573.661;   55.55000;    -0.12758;1.00000
 574.755;   55.66000;    -0.12764;1.00000
 575.849;   55.77000;    -0.12770;1.00000
 576.963;   55.88000;    -0.12773;1.00000
 578.047;   55.99000;    -0.12777;1.00000
 579.15;   56.10000;    -0.12782;1.00000
 580.237;   56.21000;    -0.12786;1.00000
 581.335;   56.32000;    -0.12789;1.00000
 582.447;   56.43000;    -0.12794;1.00000
 583.541;   56.54000;    -0.12799;1.00000
 584.645;   56.65000;    -0.12802;1.00000
 585.749;   56.76000;    -0.12807;1.00000
 586.834;   56.87000;    -0.12811;1.00000
 587.945;   56.98000;    -0.12814;1.00000
 589.046;   57.09000;    -0.12816;1.00000
 590.135;   57.20000;    -0.12820;1.00000
 591.241;   57.31000;    -0.12830;1.00000
 592.336;   57.42000;    -0.12834;1.00000
 593.433;   57.53000;    -0.12834;1.00000
 594.528;   57.64000;    -0.12839;1.00000
 595.624;   57.75000;    -0.12843;1.00000
 596.719;   57.86000;    -0.12850;1.00000
 597.826;   57.97000;    -0.12850;1.00000
 598.926;   58.08000;    -0.12853;1.00000
 600.02;   58.19000;    -0.12853;1.00000
 601.119;   58.30000;    -0.12859;1.00000
 602.209;   58.41000;    -0.12862;1.00000
 603.318;   58.52000;    -0.12869;1.00000
 604.413;   58.63000;    -0.12880;1.00000
 605.51;   58.74000;    -0.12886;1.00000
 606.61;   58.85000;    -0.12888;1.00000
 607.715;   58.96000;    -0.12893;1.00000
 608.806;   59.07000;    -0.12898;1.00000
 609.906;   59.18000;    -0.12899;1.00000
 611.003;   59.29000;    -0.12904;1.00000
 612.098;   59.40000;    -0.12909;1.00000
 613.206;   59.51000;    -0.12910;1.00000
 614.299;   59.62000;    -0.12910;1.00000
 615.41;   59.73000;    -0.12915;1.00000
 616.506;   59.84000;    -0.12918;1.00000
 617.595;   59.95000;    -0.12921;1.00000
 618.704;   60.06000;    -0.12921;1.00000
 619.803;   60.17000;    -0.12923;1.00000
 620.901;   60.28000;    -0.12929;1.00000
 621.995;   60.39000;    -0.12932;1.00000
 623.098;   60.50000;    -0.12923;1.00000
 624.187;   60.61000;    -0.12776;1.00000
 625.297;   60.72000;    -0.12776;1.00000
 626.389;   60.83000;    -0.12748;1.00000
 627.481;   60.94000;    -0.12748;1.00000
 628.581;   61.05000;    -0.12761;1.00000
 629.68;   61.16000;    -0.12763;1.00000
 630.787;   61.27000;    -0.12761;1.00000
 631.886;   61.38000;    -0.12765;1.00000
 632.98;   61.49000;    -0.12764;1.00000
 634.085;   61.60000;    -0.12765;1.00000
 635.185;   61.71000;    -0.12771;1.00000
 636.28;   61.82000;    -0.12768;1.00000
 637.384;   61.93000;    -0.12774;1.00000
 638.484;   62.04000;    -0.12773;1.00000
 639.582;   62.15000;    -0.12773;1.00000
 640.677;   62.26000;    -0.12772;1.00000
 641.79;   62.37000;    -0.12772;1.00000
 642.874;   62.48000;    -0.12774;1.00000
 643.965;   62.59000;    -0.12774;1.00000
 645.075;   62.70000;    -0.12775;1.00000
 646.177;   62.81000;    -0.12773;1.00000
 647.284;   62.92000;    -0.12775;1.00000
 648.376;   63.03000;    -0.12776;1.00000
 649.475;   63.14000;    -0.12775;1.00000
 650.578;   63.25000;    -0.12774;1.00000
 651.675;   63.36000;    -0.12772;1.00000
 652.775;   63.47000;    -0.12770;1.00000
 653.868;   63.58000;    -0.12768;1.00000
 654.978;   63.69000;    -0.12768;1.00000
 656.076;   63.80000;    -0.12768;1.00000
 657.178;   63.91000;    -0.12768;1.00000
 658.274;   64.02000;    -0.12766;1.00000
 659.389;   64.13000;    -0.12766;1.00000
 660.483;   64.24000;    -0.12774;1.00000
 661.585;   64.35000;    -0.12773;1.00000
 662.679;   64.46000;    -0.12773;1.00000
 663.784;   64.57000;    -0.12772;1.00000
 664.885;   64.68000;    -0.12768;1.00000
 665.987;   64.79000;    -0.12770;1.00000
 667.083;   64.90000;    -0.12766;1.00000
 668.18;   65.01000;    -0.12767;1.00000
 669.277;   65.12000;    -0.12767;1.00000
 670.376;   65.23000;    -0.12760;1.00000
 671.482;   65.34000;    -0.12763;1.00000
 672.583;   65.45000;    -0.12760;1.00000
 673.677;   65.56000;    -0.12762;1.00000
 674.771;   65.67000;    -0.12765;1.00000
 675.873;   65.78000;    -0.12761;1.00000
 676.981;   65.89000;    -0.12760;1.00000
 678.082;   66.00000;    -0.12757;1.00000
 679.181;   66.11000;    -0.12754;1.00000
 680.281;   66.22000;    -0.12748;1.00000
 681.37;   66.33000;    -0.12746;1.00000
 682.472;   66.44000;    -0.12748;1.00000
 683.585;   66.55000;    -0.12748;1.00000
 684.676;   66.66000;    -0.12741;1.00000
 685.787;   66.77000;    -0.12741;1.00000
 686.867;   66.88000;    -0.12740;1.00000
 687.975;   66.99000;    -0.12734;1.00000
 689.077;   67.10000;    -0.12731;1.00000
 690.17;   67.21000;    -0.12729;1.00000
 691.265;   67.32000;    -0.12731;1.00000
 692.388;   67.43000;    -0.12725;1.00000
 693.476;   67.54000;    -0.12720;1.00000
 694.577;   67.65000;    -0.12721;1.00000
 695.667;   67.76000;    -0.12722;1.00000
 696.781;   67.87000;    -0.12721;1.00000
 697.879;   67.98000;    -0.12716;1.00000
 698.979;   68.09000;    -0.12719;1.00000
 700.077;   68.20000;    -0.12713;1.00000
 701.175;   68.31000;    -0.12724;1.00000
 702.271;   68.42000;    -0.12712;1.00000
 703.368;   68.53000;    -0.12709;1.00000
 704.473;   68.64000;    -0.12704;1.00000
 705.571;   68.75000;    -0.12709;1.00000
 706.677;   68.86000;    -0.12707;1.00000
 707.785;   68.97000;    -0.12698;1.00000
 708.886;   69.08000;    -0.12693;1.00000
 709.977;   69.19000;    -0.12694;1.00000
 711.078;   69.30000;    -0.12689;1.00000
 712.19;   69.41000;    -0.12687;1.00000
 713.288;   69.52000;    -0.12681;1.00000
 714.391;   69.63000;    -0.12680;1.00000
 715.492;   69.74000;    -0.12676;1.00000
 716.581;   69.85000;    -0.12679;1.00000
 717.694;   69.96000;    -0.12675;1.00000
 718.793;   70.07000;    -0.12677;1.00000
 719.905;   70.18000;    -0.12670;1.00000
 720.999;   70.29000;    -0.12656;1.00000
 722.091;   70.40000;    -0.12657;1.00000
 723.198;   70.51000;    -0.12648;1.00000
 724.307;   70.62000;    -0.12644;1.00000
 725.402;   70.73000;    -0.12636;1.00000
 726.516;   70.84000;    -0.12627;1.00000
 727.61;   70.95000;    -0.12626;1.00000
 728.707;   71.06000;    -0.12624;1.00000
 729.805;   71.17000;    -0.12619;1.00000
 730.903;   71.28000;    -0.12613;1.00000
 732.003;   71.39000;    -0.12608;1.00000
 733.108;   71.50000;    -0.12608;1.00000
 734.204;   71.61000;    -0.12599;1.00000
 735.302;   71.72000;    -0.12592;1.00000
 736.405;   71.83000;    -0.12601;1.00000
 737.508;   71.94000;    -0.12590;1.00000
 738.598;   72.05000;    -0.12585;1.00000
 739.711;   72.16000;    -0.12579;1.00000
 740.821;   72.27000;    -0.12576;1.00000
 741.919;   72.38000;    -0.12565;1.00000
 743.013;   72.49000;    -0.12560;1.00000
 744.124;   72.60000;    -0.12552;1.00000
 745.227;   72.71000;    -0.12546;1.00000
 746.326;   72.82000;    -0.12539;1.00000
 747.43;   72.93000;    -0.12535;1.00000
 748.526;   73.04000;    -0.12537;1.00000
 749.627;   73.15000;    -0.12529;1.00000
 750.72;   73.26000;    -0.12523;1.00000
 751.832;   73.37000;    -0.12516;1.00000
 752.918;   73.48000;    -0.12509;1.00000
 754.013;   73.59000;    -0.12504;1.00000
 755.106;   73.70000;    -0.12496;1.00000
 756.212;   73.81000;    -0.12492;1.00000
 757.322;   73.92000;    -0.12487;1.00000
 758.427;   74.03000;    -0.12477;1.00000
 759.53;   74.14000;    -0.12479;1.00000
 760.628;   74.25000;    -0.12472;1.00000
 761.736;   74.36000;    -0.12464;1.00000
 762.836;   74.47000;    -0.12452;1.00000
 763.931;   74.58000;    -0.12446;1.00000
 765.031;   74.69000;    -0.12443;1.00000
 766.127;   74.80000;    -0.12435;1.00000
 767.229;   74.91000;    -0.12428;1.00000
 768.329;   75.02000;    -0.12420;1.00000
 769.435;   75.13000;    -0.12410;1.00000
 770.533;   75.24000;    -0.12408;1.00000
 771.637;   75.35000;    -0.12399;1.00000
 772.74;   75.46000;    -0.12394;1.00000
 773.827;   75.57000;    -0.12386;1.00000
 774.933;   75.68000;    -0.12384;1.00000
 776.038;   75.79000;    -0.12372;1.00000
 777.147;   75.90000;    -0.12363;1.00000
 778.243;   76.01000;    -0.12361;1.00000
 779.346;   76.12000;    -0.12350;1.00000
 780.451;   76.23000;    -0.12352;1.00000
 781.549;   76.34000;    -0.12342;1.00000
 782.655;   76.45000;    -0.12326;1.00000
 783.749;   76.56000;    -0.12326;1.00000
 784.851;   76.67000;    -0.12311;1.00000
 785.956;   76.78000;    -0.12311;1.00000
 787.051;   76.89000;    -0.12305;1.00000
 788.164;   77.00000;    -0.12287;1.00000
 789.25;   77.11000;    -0.12279;1.00000
 790.35;   77.22000;    -0.12289;1.00000
 791.455;   77.33000;    -0.12268;1.00000
 792.556;   77.44000;    -0.12257;1.00000
 793.652;   77.55000;    -0.12250;1.00000
 794.762;   77.66000;    -0.12236;1.00000
 795.859;   77.77000;    -0.12222;1.00000
 796.96;   77.88000;    -0.12216;1.00000
 798.063;   77.99000;    -0.12208;1.00000
 799.165;   78.10000;    -0.12203;1.00000
 800.268;   78.21000;    -0.12192;1.00000
 801.364;   78.32000;    -0.12187;1.00000
 802.475;   78.43000;    -0.12179;1.00000
 803.577;   78.54000;    -0.12169;1.00000
 804.675;   78.65000;    -0.12169;1.00000
 805.765;   78.76000;    -0.12167;1.00000
 806.874;   78.87000;    -0.12157;1.00000
 807.971;   78.98000;    -0.12150;1.00000
 809.08;   79.09000;    -0.12143;1.00000
 810.187;   79.20000;    -0.12134;1.00000
 811.281;   79.31000;    -0.12122;1.00000
 812.378;   79.42000;    -0.12113;1.00000
 813.486;   79.53000;    -0.12106;1.00000
 814.589;   79.64000;    -0.12094;1.00000
 815.69;   79.75000;    -0.12087;1.00000
 816.785;   79.86000;    -0.12082;1.00000
 817.886;   79.97000;    -0.12075;1.00000
 818.99;   80.08000;    -0.12066;1.00000
 820.089;   80.19000;    -0.12059;1.00000
 821.179;   80.30000;    -0.12046;1.00000
 822.292;   80.41000;    -0.12038;1.00000
 823.399;   80.52000;    -0.12028;1.00000
 824.504;   80.63000;    -0.12015;1.00000
 825.595;   80.74000;    -0.12016;1.00000
 826.704;   80.85000;    -0.12005;1.00000
 827.804;   80.96000;    -0.11992;1.00000
 828.899;   81.07000;    -0.11982;1.00000
 830.007;   81.18000;    -0.11981;1.00000
 831.114;   81.29000;    -0.11966;1.00000
 832.215;   81.40000;    -0.11953;1.00000
 833.312;   81.51000;    -0.11948;1.00000
 834.409;   81.62000;    -0.11937;1.00000
 835.515;   81.73000;    -0.11932;1.00000
 836.619;   81.84000;    -0.11919;1.00000
 837.71;   81.95000;    -0.11913;1.00000
 838.819;   82.06000;    -0.11904;1.00000
 839.908;   82.17000;    -0.11899;1.00000
 841.022;   82.28000;    -0.11883;1.00000
 842.122;   82.39000;    -0.11878;1.00000
 843.234;   82.50000;    -0.11870;1.00000
 844.32;   82.61000;    -0.11862;1.00000
 845.435;   82.72000;    -0.11849;1.00000
 846.526;   82.83000;    -0.11843;1.00000
 847.644;   82.94000;    -0.11836;1.00000
 848.736;   83.05000;    -0.11826;1.00000
 849.835;   83.16000;    -0.11821;1.00000
 850.946;   83.27000;    -0.11811;1.00000
 852.059;   83.38000;    -0.11803;1.00000
 853.152;   83.49000;    -0.11798;1.00000
 854.251;   83.60000;    -0.11795;1.00000
 855.362;   83.71000;    -0.11790;1.00000
 856.453;   83.82000;    -0.11782;1.00000
 857.566;   83.93000;    -0.11778;1.00000
 858.678;   84.04000;    -0.11772;1.00000
 859.768;   84.15000;    -0.11769;1.00000
 860.873;   84.26000;    -0.11757;1.00000
 861.978;   84.37000;    -0.11747;1.00000
 863.071;   84.48000;    -0.11737;1.00000
 864.174;   84.59000;    -0.11733;1.00000
 865.279;   84.70000;    -0.11726;1.00000
 866.384;   84.81000;    -0.11719;1.00000
 867.483;   84.92000;    -0.11714;1.00000
 868.58;   85.03000;    -0.11707;1.00000
 869.68;   85.14000;    -0.11699;1.00000
 870.781;   85.25000;    -0.11688;1.00000
 871.883;   85.36000;    -0.11682;1.00000
 872.978;   85.47000;    -0.11674;1.00000
 874.085;   85.58000;    -0.11666;1.00000
 875.185;   85.69000;    -0.11653;1.00000
 876.288;   85.80000;    -0.11650;1.00000
 877.386;   85.91000;    -0.11639;1.00000
 878.495;   86.02000;    -0.11635;1.00000
 879.593;   86.13000;    -0.11625;1.00000
 880.696;   86.24000;    -0.11620;1.00000
 881.792;   86.35000;    -0.11609;1.00000
 882.893;   86.46000;    -0.11606;1.00000
 883.987;   86.57000;    -0.11598;1.00000
 885.1;   86.68000;    -0.11591;1.00000
 886.189;   86.79000;    -0.11583;1.00000
 887.298;   86.90000;    -0.11574;1.00000
 888.406;   87.01000;    -0.11562;1.00000
 889.498;   87.12000;    -0.11553;1.00000
 890.607;   87.23000;    -0.11541;1.00000
 891.712;   87.34000;    -0.11531;1.00000
 892.806;   87.45000;    -0.11519;1.00000
 893.915;   87.56000;    -0.11507;1.00000
 895.008;   87.67000;    -0.11498;1.00000
 896.112;   87.78000;    -0.11483;1.00000
 897.219;   87.89000;    -0.11468;1.00000
 898.313;   88.00000;    -0.11454;1.00000
 899.423;   88.11000;    -0.11442;1.00000
 900.526;   88.22000;    -0.11430;1.00000
 901.625;   88.33000;    -0.11414;1.00000
 902.727;   88.44000;    -0.11397;1.00000
 903.842;   88.55000;    -0.11382;1.00000
 904.941;   88.66000;    -0.11368;1.00000
 906.043;   88.77000;    -0.11350;1.00000
 907.144;   88.88000;    -0.11334;1.00000
 908.239;   88.99000;    -0.11314;1.00000
 909.338;   89.10000;    -0.11295;1.00000
 910.448;   89.21000;    -0.11278;1.00000
 911.552;   89.32000;    -0.11256;1.00000
 912.663;   89.43000;    -0.11237;1.00000
 913.765;   89.54000;    -0.11211;1.00000
 914.867;   89.65000;    -0.11191;1.00000
 915.964;   89.76000;    -0.11169;1.00000
 917.065;   89.87000;    -0.11144;1.00000
 918.17;   89.98000;    -0.11118;1.00000
 919.275;   90.09000;    -0.11094;1.00000
 920.375;   90.20000;    -0.11071;1.00000
 921.477;   90.31000;    -0.11048;1.00000
 922.572;   90.42000;    -0.11022;1.00000
 923.673;   90.53000;    -0.10998;1.00000
 924.776;   90.64000;    -0.10970;1.00000
 925.886;   90.75000;    -0.10941;1.00000
 926.986;   90.86000;    -0.10910;1.00000
 928.096;   90.97000;    -0.10884;1.00000
 929.197;   91.08000;    -0.10853;1.00000
 930.299;   91.19000;    -0.10826;1.00000
 931.402;   91.30000;    -0.10790;1.00000
 932.505;   91.41000;    -0.10764;1.00000
 933.615;   91.52000;    -0.10733;1.00000
 934.714;   91.63000;    -0.10700;1.00000
 935.821;   91.74000;    -0.10668;1.00000
 936.92;   91.85000;    -0.10638;1.00000
 938.019;   91.96000;    -0.10608;1.00000
 939.107;   92.07000;    -0.10579;1.00000
 940.217;   92.18000;    -0.10555;1.00000
 941.325;   92.29000;    -0.10526;1.00000
 942.417;   92.40000;    -0.10496;1.00000
 943.521;   92.51000;    -0.10473;1.00000
 944.611;   92.62000;    -0.10450;1.00000
 945.715;   92.73000;    -0.10426;1.00000
 946.835;   92.84000;    -0.10399;1.00000
 947.928;   92.95000;    -0.10373;1.00000
 949.031;   93.06000;    -0.10348;1.00000
 950.137;   93.17000;    -0.10330;1.00000
 951.237;   93.28000;    -0.10309;1.00000
 952.337;   93.39000;    -0.10286;1.00000
 953.442;   93.50000;    -0.10272;1.00000
 954.544;   93.61000;    -0.10250;1.00000
 955.65;   93.72000;    -0.10240;1.00000
 956.736;   93.83000;    -0.10222;1.00000
 957.851;   93.94000;    -0.10212;1.00000
 958.952;   94.05000;    -0.10199;1.00000
 960.049;   94.16000;    -0.10191;1.00000
 961.148;   94.27000;    -0.10182;1.00000
 962.247;   94.38000;    -0.10178;1.00000
 963.355;   94.49000;    -0.10168;1.00000
 964.452;   94.60000;    -0.10166;1.00000
 965.566;   94.71000;    -0.10156;1.00000
 966.663;   94.82000;    -0.10154;1.00000
 967.765;   94.93000;    -0.10159;1.00000
 968.865;   95.04000;    -0.10154;1.00000
 969.96;   95.15000;    -0.10156;1.00000
 971.071;   95.26000;    -0.10156;1.00000
 972.174;   95.37000;    -0.10169;1.00000
 973.28;   95.48000;    -0.10168;1.00000
 974.388;   95.59000;    -0.10177;1.00000
 975.487;   95.70000;    -0.10181;1.00000
 976.592;   95.81000;    -0.10188;1.00000
 977.695;   95.92000;    -0.10199;1.00000
 978.799;   96.03000;    -0.10201;1.00000
 979.905;   96.14000;    -0.10213;1.00000
 981.002;   96.25000;    -0.10225;1.00000
 982.108;   96.36000;    -0.10235;1.00000
 983.212;   96.47000;    -0.10249;1.00000
 984.303;   96.58000;    -0.10268;1.00000
 985.423;   96.69000;    -0.10283;1.00000
 986.523;   96.80000;    -0.10288;1.00000
 987.632;   96.91000;    -0.10308;1.00000
 988.721;   97.02000;    -0.10316;1.00000
 989.825;   97.13000;    -0.10329;1.00000
 990.933;   97.24000;    -0.10343;1.00000
 992.026;   97.35000;    -0.10355;1.00000
 993.125;   97.46000;    -0.10374;1.00000
 994.228;   97.57000;    -0.10386;1.00000
 995.325;   97.68000;    -0.10393;1.00000
 996.441;   97.79000;    -0.10405;1.00000
 997.537;   97.90000;    -0.10415;1.00000
 998.641;   98.01000;    -0.10422;1.00000
 999.749;   98.12000;    -0.10426;1.00000
1000.86;   98.23000;    -0.10429;1.00000
1001.97;   98.34000;    -0.10434;1.00000
1003.06;   98.45000;    -0.10438;1.00000
1004.17;   98.56000;    -0.10439;1.00000
1005.27;   98.67000;    -0.10439;1.00000
1006.37;   98.78000;    -0.10431;1.00000
1007.49;   98.89000;    -0.10428;1.00000
1008.59;   99.00000;    -0.10421;1.00000
1009.69;   99.11000;    -0.10414;1.00000
1010.79;   99.22000;    -0.10409;1.00000
1011.9;   99.33000;    -0.10396;1.00000
1013;   99.44000;    -0.10383;1.00000
1014.1;   99.55000;    -0.10373;1.00000
1015.2;   99.66000;    -0.10360;1.00000
1016.3;   99.77000;    -0.10342;1.00000
1017.41;   99.88000;    -0.10323;1.00000
1018.52;   99.99000;    -0.10305;1.00000
1019.62;  100.1;    -0.10284;1.00000
1020.73;  100.21;    -0.10266;1.00000
1021.82;  100.32;    -0.10244;1.00000
1022.93;  100.43;    -0.10227;1.00000
1024.03;  100.54;    -0.10204;1.00000
1025.14;  100.65;    -0.10179;1.00000
1026.23;  100.76;    -0.10155;1.00000
1027.34;  100.87;    -0.10143;1.00000
1028.44;  100.98;    -0.10116;1.00000
1029.55;  101.09;    -0.10093;1.00000
1030.65;  101.2;    -0.10072;1.00000
1031.75;  101.31;    -0.10053;1.00000
1032.85;  101.42;    -0.10022;1.00000
1033.96;  101.53;-9.9972e-002;1.00000
1035.06;  101.64;-9.9717e-002;1.00000
1036.16;  101.75;-9.9456e-002;1.00000
1037.27;  101.86;-9.9249e-002;1.00000
1038.37;  101.97;-9.9044e-002;1.00000
1039.47;  102.08;-9.8868e-002;1.00000
1040.57;  102.19;-9.8696e-002;1.00000
1041.68;  102.3;-9.8565e-002;1.00000
1042.78;  102.41;-9.8496e-002;1.00000
1043.87;  102.52;-9.8454e-002;1.00000
1044.98;  102.63;-9.8549e-002;1.00000
1046.08;  102.74;-9.8757e-002;1.00000
1047.19;  102.85;-9.9057e-002;1.00000
1048.28;  102.96;-9.9525e-002;1.00000
1049.4;  103.07;    -0.10016;1.00000
1050.48;  103.18;    -0.10103;1.00000
1051.6;  103.29;    -0.10221;1.00000
1052.69;  103.4;    -0.10368;1.00000
1053.8;  103.51;    -0.10555;1.00000
1054.91;  103.62;    -0.10780;1.00000
1056.01;  103.73;    -0.11058;1.00000
1057.11;  103.84;    -0.11385;1.00000
1058.22;  103.95;    -0.11766;1.00000
1059.33;  104.06;    -0.12198;1.00000
1060.43;  104.17;    -0.12681;1.00000
1061.54;  104.28;    -0.13197;1.00000
1062.65;  104.39;    -0.13747;1.00000
1063.75;  104.5;    -0.14301;1.00000
1064.86;  104.61;    -0.14834;1.00000
1065.98;  104.72;    -0.15312;1.00000
1067.09;  104.83;    -0.15722;1.00000
1068.2;  104.94;    -0.16028;1.00000
1069.32;  105.05;    -0.16255;1.00000
1070.43;  105.16;    -0.16394;1.00000
1071.54;  105.27;    -0.16468;1.00000
1072.64;  105.38;    -0.16489;1.00000
1073.75;  105.49;    -0.16447;1.00000
1074.84;  105.6;    -0.16361;1.00000
1075.96;  105.71;    -0.16227;1.00000
1077.06;  105.82;    -0.16054;1.00000
1078.16;  105.93;    -0.15840;1.00000
1079.26;  106.04;    -0.15605;1.00000
1080.36;  106.15;    -0.15352;1.00000
1081.46;  106.26;    -0.15082;1.00000
1082.55;  106.37;    -0.14804;1.00000
1083.66;  106.48;    -0.14515;1.00000
1084.75;  106.59;    -0.14225;1.00000
1085.84;  106.7;    -0.13928;1.00000
1086.93;  106.81;    -0.13635;1.00000
1088.04;  106.92;    -0.13347;1.00000
1089.13;  107.03;    -0.13059;1.00000
1090.22;  107.14;    -0.12778;1.00000
1091.31;  107.25;    -0.12504;1.00000
1092.4;  107.36;    -0.12235;1.00000
1093.5;  107.47;    -0.11971;1.00000
1094.59;  107.58;    -0.11716;1.00000
1095.68;  107.69;    -0.11472;1.00000
1096.79;  107.8;    -0.11234;1.00000
1097.88;  107.91;    -0.11017;1.00000
1098.98;  108.02;    -0.10798;1.00000
1100.09;  108.13;    -0.10606;1.00000
1101.19;  108.24;    -0.10415;1.00000
1102.28;  108.35;    -0.10246;1.00000
1103.39;  108.46;    -0.10081;1.00000
1104.48;  108.57;-9.9355e-002;1.00000
1105.58;  108.68;-9.7970e-002;1.00000
1106.68;  108.79;-9.6730e-002;1.00000
1107.78;  108.9;-9.5560e-002;1.00000
1108.88;  109.01;-9.4486e-002;1.00000
1109.98;  109.12;-9.3470e-002;1.00000
1111.1;  109.23;-9.2561e-002;1.00000
1112.19;  109.34;-9.1734e-002;1.00000
1113.29;  109.45;-9.0970e-002;1.00000
1114.4;  109.56;-9.0226e-002;1.00000
1115.51;  109.67;-8.9580e-002;1.00000
1116.61;  109.78;-8.8995e-002;1.00000
1117.71;  109.89;-8.8439e-002;1.00000
1118.82;  110;-8.7939e-002;1.00000
1119.94;  110.11;-8.7436e-002;1.00000
1121.04;  110.22;-8.6995e-002;1.00000
1122.15;  110.33;-8.6545e-002;1.00000
1123.25;  110.44;-8.6168e-002;1.00000
1124.35;  110.55;-8.5817e-002;1.00000
1125.47;  110.66;-8.5500e-002;1.00000
1126.57;  110.77;-8.5152e-002;1.00000
1127.67;  110.88;-8.4820e-002;1.00000
1128.78;  110.99;-8.4458e-002;1.00000
1129.89;  111.1;-8.4157e-002;1.00000
1130.99;  111.21;-8.3854e-002;1.00000
1132.09;  111.32;-8.3578e-002;1.00000
1133.2;  111.43;-8.3314e-002;1.00000
1134.3;  111.54;-8.3048e-002;1.00000
1135.4;  111.65;-8.2767e-002;1.00000
1136.51;  111.76;-8.2469e-002;1.00000
1137.61;  111.87;-8.2256e-002;1.00000
1138.71;  111.98;-8.2014e-002;1.00000
1139.82;  112.09;-8.1812e-002;1.00000
1140.93;  112.2;-8.1626e-002;1.00000
1142.02;  112.31;-8.1416e-002;1.00000
1143.13;  112.42;-8.1248e-002;1.00000
1144.23;  112.53;-8.1067e-002;1.00000
1145.33;  112.64;-8.0828e-002;1.00000
1146.44;  112.75;-8.0671e-002;1.00000
1147.54;  112.86;-8.0501e-002;1.00000
1148.65;  112.97;-8.0360e-002;1.00000
1149.75;  113.08;-8.0147e-002;1.00000
1150.85;  113.19;-8.0033e-002;1.00000
1151.96;  113.3;-7.9881e-002;1.00000
1153.06;  113.41;-7.9735e-002;1.00000
1154.17;  113.52;-7.9647e-002;1.00000
1155.27;  113.63;-7.9485e-002;1.00000
1156.37;  113.74;-7.9363e-002;1.00000
1157.48;  113.85;-7.9238e-002;1.00000
1158.58;  113.96;-7.9094e-002;1.00000
1159.68;  114.07;-7.9004e-002;1.00000
1160.79;  114.18;-7.8857e-002;1.00000
1161.89;  114.29;-7.8762e-002;1.00000
1162.99;  114.4;-7.8674e-002;1.00000
1164.09;  114.51;-7.8592e-002;1.00000
1165.2;  114.62;-7.8443e-002;1.00000
1166.3;  114.73;-7.8363e-002;1.00000
1167.41;  114.84;-7.8275e-002;1.00000
1168.51;  114.95;-7.8182e-002;1.00000
1169.61;  115.06;-7.8097e-002;1.00000
1170.72;  115.17;-7.8001e-002;1.00000
1171.82;  115.28;-7.7890e-002;1.00000
1172.91;  115.39;-7.7810e-002;1.00000
1174.03;  115.5;-7.7725e-002;1.00000
1175.13;  115.61;-7.7671e-002;1.00000
1176.23;  115.72;-7.7629e-002;1.00000
1177.34;  115.83;-7.7461e-002;1.00000
1178.43;  115.94;-7.7424e-002;1.00000
1179.54;  116.05;-7.7358e-002;1.00000
1180.64;  116.16;-7.7283e-002;1.00000
1181.74;  116.27;-7.7225e-002;1.00000
1182.84;  116.38;-7.7132e-002;1.00000
1183.95;  116.49;-7.7140e-002;1.00000
1185.06;  116.6;-7.7070e-002;1.00000
1186.16;  116.71;-7.7004e-002;1.00000
1187.26;  116.82;-7.7004e-002;1.00000
1188.35;  116.93;-7.6969e-002;1.00000
1189.46;  117.04;-7.6882e-002;1.00000
1190.56;  117.15;-7.6855e-002;1.00000
1191.66;  117.26;-7.6828e-002;1.00000
1192.77;  117.37;-7.6834e-002;1.00000
1193.88;  117.48;-7.6802e-002;1.00000
1194.98;  117.59;-7.6773e-002;1.00000
1196.07;  117.7;-7.6725e-002;1.00000
1197.18;  117.81;-7.6725e-002;1.00000
1198.29;  117.92;-7.6738e-002;1.00000
1199.38;  118.03;-7.6727e-002;1.00000
1200.48;  118.14;-7.6719e-002;1.00000
1201.58;  118.25;-7.6738e-002;1.00000
1202.69;  118.36;-7.6730e-002;1.00000
1203.79;  118.47;-7.6751e-002;1.00000
1204.9;  118.58;-7.6759e-002;1.00000
1206;  118.69;-7.6805e-002;1.00000
1207.1;  118.8;-7.6823e-002;1.00000
1208.21;  118.91;-7.6826e-002;1.00000
1209.31;  119.02;-7.6860e-002;1.00000
1210.4;  119.13;-7.6836e-002;1.00000
1211.52;  119.24;-7.6828e-002;1.00000
1212.62;  119.35;-7.6852e-002;1.00000
1213.72;  119.46;-7.6900e-002;1.00000
1214.82;  119.57;-7.6914e-002;1.00000
1215.92;  119.68;-7.6959e-002;1.00000
1217.02;  119.79;-7.6983e-002;1.00000
1218.12;  119.9;-7.7068e-002;1.00000
1219.23;  120.01;-7.7094e-002;1.00000
1220.34;  120.12;-7.7113e-002;1.00000
1221.42;  120.23;-7.7174e-002;1.00000
1222.54;  120.34;-7.7275e-002;1.00000
1223.63;  120.45;-7.7326e-002;1.00000
1224.74;  120.56;-7.7360e-002;1.00000
1225.83;  120.67;-7.7480e-002;1.00000
1226.93;  120.78;-7.7549e-002;1.00000
1228.03;  120.89;-7.7589e-002;1.00000
1229.14;  121;-7.7658e-002;1.00000
1230.24;  121.11;-7.7783e-002;1.00000
1231.33;  121.22;-7.7937e-002;1.00000
1232.46;  121.33;-7.8038e-002;1.00000
1233.54;  121.44;-7.8158e-002;1.00000
1234.65;  121.55;-7.8310e-002;1.00000
1235.76;  121.66;-7.8448e-002;1.00000
1236.85;  121.77;-7.8674e-002;1.00000
1237.96;  121.88;-7.8842e-002;1.00000
1239.07;  121.99;-7.9036e-002;1.00000
1240.15;  122.1;-7.9331e-002;1.00000
1241.26;  122.21;-7.9591e-002;1.00000
1242.38;  122.32;-7.9839e-002;1.00000
1243.47;  122.43;-8.0051e-002;1.00000
1244.58;  122.54;-8.0285e-002;1.00000
1245.68;  122.65;-8.0509e-002;1.00000
1246.79;  122.76;-8.0692e-002;1.00000
1247.9;  122.87;-8.0884e-002;1.00000
1249.01;  122.98;-8.1121e-002;1.00000
1250.12;  123.09;-8.1296e-002;1.00000
1251.21;  123.2;-8.1472e-002;1.00000
1252.32;  123.31;-8.1660e-002;1.00000
1253.43;  123.42;-8.1881e-002;1.00000
1254.52;  123.53;-8.2041e-002;1.00000
1255.63;  123.64;-8.2267e-002;1.00000
1256.72;  123.75;-8.2487e-002;1.00000
1257.82;  123.86;-8.2798e-002;1.00000
1258.93;  123.97;-8.3030e-002;1.00000
1260.03;  124.08;-8.3259e-002;1.00000
1261.14;  124.19;-8.3455e-002;1.00000
1262.23;  124.3;-8.3631e-002;1.00000
1263.35;  124.41;-8.3889e-002;1.00000
1264.44;  124.52;-8.4046e-002;1.00000
1265.55;  124.63;-8.4203e-002;1.00000
1266.64;  124.74;-8.4399e-002;1.00000
1267.75;  124.85;-8.4511e-002;1.00000
1268.85;  124.96;-8.4665e-002;1.00000
1269.95;  125.07;-8.4780e-002;1.00000
1271.06;  125.18;-8.4875e-002;1.00000
1272.16;  125.29;-8.5059e-002;1.00000
1273.26;  125.4;-8.5202e-002;1.00000
1274.36;  125.51;-8.5357e-002;1.00000
1275.45;  125.62;-8.5482e-002;1.00000
1276.56;  125.73;-8.5732e-002;1.00000
1277.66;  125.84;-8.5907e-002;1.00000
1278.76;  125.95;-8.6061e-002;1.00000
1279.86;  126.06;-8.6306e-002;1.00000
1280.96;  126.17;-8.6564e-002;1.00000
1282.06;  126.28;-8.6790e-002;1.00000
1283.16;  126.39;-8.6997e-002;1.00000
1284.26;  126.5;-8.7261e-002;1.00000
1285.36;  126.61;-8.7484e-002;1.00000
1286.46;  126.72;-8.7718e-002;1.00000
1287.57;  126.83;-8.7984e-002;1.00000
1288.67;  126.94;-8.8178e-002;1.00000
1289.77;  127.05;-8.8348e-002;1.00000
1290.87;  127.16;-8.8612e-002;1.00000
1291.97;  127.27;-8.8835e-002;1.00000
1293.07;  127.38;-8.9074e-002;1.00000
1294.17;  127.49;-8.9300e-002;1.00000
1295.28;  127.6;-8.9545e-002;1.00000
1296.38;  127.71;-8.9827e-002;1.00000
1297.47;  127.82;-9.0111e-002;1.00000
1298.57;  127.93;-9.0311e-002;1.00000
1299.27;  128;-9.0462e-002;1.00000