File: charts/20230801/DTA/SATURADAS/Cs-ZSCBA_v2.txt
#FILE:                       ;Dta_Danilo_ZAC-Cs.ngb-dd9
#FORMAT:                     ;NETZSCH5
#IDENTITY:                   ;Danilo
#DECIMAL:                    ;POINT
#SEPARATOR:                  ;SEMICOLON
#MTYPE:                      ;DTA
#INSTRUMENT:                 ;NETZSCH DSC 404F3
#PROJECT:                    ;Danilo
#DATE/TIME:                  ;17/05/2022 08:27:25
#CORR. FILE:                 ;DTA Danilo Branco 04-07-22.ngb-bd9
#LABORATORY:                 ;DSC/DTA
#OPERATOR:                   ;Eguiberto
#REMARK:                     ;Danilo
#SAMPLE:                     ;ZAC 2
#SAMPLE MASS /mg:            ;87.8
#MATERIAL:                   ;Vidro + Zeolita
#REFERENCE:                  ;Empty
#REFERENCE MASS /mg:         ;0
#TYPE OF CRUCIBLE:           ;DTA/TG crucible Al2O3
#SAMPLE CRUCIBLE MASS /mg:   ;1336.7
#REFERENCE CRUCIBLE MASS /mg:;1342.9
#CORR. CODE:                 ;020
#EXO:                        ;-1
#RANGE:                      ;20/10.0(K/min)/1300
#SEGMENT:                    ;S1/1

##Temp./ C Time/min DTA/(uV/mg) Sensit./(uV/mW)
26.95600;0.0000e+000;1.6907e-002;1.00000
27.16000;9.0000e-002;1.6595e-002;1.00000
27.34900;0.18000;1.6352e-002;1.00000
27.55100;0.27000;1.6114e-002;1.00000
27.73300;0.36000;1.5972e-002;1.00000
27.90500;0.45000;1.5729e-002;1.00000
28.07000;0.54000;1.5523e-002;1.00000
28.24700;0.63000;1.5285e-002;1.00000
28.40300;0.72000;1.5026e-002;1.00000
28.57400;0.81000;1.4931e-002;1.00000
28.73100;0.90000;1.4773e-002;1.00000
28.89400;0.99000;1.4662e-002;1.00000
29.05800;1.08000;1.4493e-002;1.00000
29.23400;1.17000;1.4472e-002;1.00000
29.41600;1.26000;1.4387e-002;1.00000
29.55500;1.35000;1.4435e-002;1.00000
29.75900;1.44000;1.4408e-002;1.00000
29.90900;1.53000;1.4398e-002;1.00000
30.11600;1.62000;1.4440e-002;1.00000
30.30400;1.71000;1.4530e-002;1.00000
30.48200;1.80000;1.4614e-002;1.00000
30.69600;1.89000;1.4752e-002;1.00000
30.88600;1.98000;1.4868e-002;1.00000
31.11500;2.07000;1.5079e-002;1.00000
31.33400;2.16000;1.5269e-002;1.00000
31.55500;2.25000;1.5465e-002;1.00000
31.78500;2.34000;1.5687e-002;1.00000
32.02000;2.43000;1.5882e-002;1.00000
32.27800;2.52000;1.6109e-002;1.00000
32.54000;2.61000;1.6315e-002;1.00000
32.80100;2.70000;1.6643e-002;1.00000
33.07200;2.79000;1.6944e-002;1.00000
33.38300;2.88000;1.7150e-002;1.00000
33.66800;2.97000;1.7493e-002;1.00000
33.96700;3.06000;1.7768e-002;1.00000
34.30100;3.15000;1.8005e-002;1.00000
34.64300;3.24000;1.8264e-002;1.00000
34.97700;3.33000;1.8523e-002;1.00000
35.35200;3.42000;1.8798e-002;1.00000
35.72000;3.51000;1.9077e-002;1.00000
36.09700;3.60000;1.9363e-002;1.00000
36.50000;3.69000;1.9574e-002;1.00000
36.90600;3.78000;1.9849e-002;1.00000
37.33900;3.87000;2.0134e-002;1.00000
37.78000;3.96000;2.0382e-002;1.00000
38.23600;4.05000;2.0593e-002;1.00000
38.71200;4.14000;2.0931e-002;1.00000
39.21200;4.23000;2.1222e-002;1.00000
39.71100;4.32000;2.1555e-002;1.00000
40.22100;4.41000;2.1813e-002;1.00000
40.76000;4.50000;2.2035e-002;1.00000
41.30500;4.59000;2.2289e-002;1.00000
41.86000;4.68000;2.2616e-002;1.00000
42.46100;4.77000;2.2949e-002;1.00000
43.05000;4.86000;2.3261e-002;1.00000
43.66200;4.95000;2.3551e-002;1.00000
44.28900;5.04000;2.3873e-002;1.00000
44.93000;5.13000;2.4180e-002;1.00000
45.59700;5.22000;2.4570e-002;1.00000
46.26700;5.31000;2.4924e-002;1.00000
46.96400;5.40000;2.5305e-002;1.00000
47.67200;5.49000;2.5600e-002;1.00000
48.39400;5.58000;2.5991e-002;1.00000
49.15700;5.67000;2.6319e-002;1.00000
49.90100;5.76000;2.6731e-002;1.00000
50.67900;5.85000;2.7116e-002;1.00000
51.45400;5.94000;2.7465e-002;1.00000
52.25100;6.03000;2.7919e-002;1.00000
53.09300;6.12000;2.8283e-002;1.00000
53.93100;6.21000;2.8754e-002;1.00000
54.78000;6.30000;2.9118e-002;1.00000
55.65200;6.39000;2.9694e-002;1.00000
56.51900;6.48000;3.0116e-002;1.00000
57.41000;6.57000;3.0607e-002;1.00000
58.33500;6.66000;3.1141e-002;1.00000
59.27400;6.75000;3.1595e-002;1.00000
60.21800;6.84000;3.2208e-002;1.00000
61.16500;6.93000;3.2757e-002;1.00000
62.12500;7.02000;3.3364e-002;1.00000
63.12900;7.11000;3.3945e-002;1.00000
64.13200;7.20000;3.4558e-002;1.00000
65.11700;7.29000;3.5176e-002;1.00000
66.15300;7.38000;3.5783e-002;1.00000
67.19200;7.47000;3.6507e-002;1.00000
68.23200;7.56000;3.7188e-002;1.00000
69.28500;7.65000;3.7896e-002;1.00000
70.36400;7.74000;3.8688e-002;1.00000
71.43700;7.83000;3.9412e-002;1.00000
72.52500;7.92000;4.0305e-002;1.00000
73.64500;8.01000;4.1171e-002;1.00000
74.74900;8.10000;4.2016e-002;1.00000
75.87100;8.19000;4.2824e-002;1.00000
77.00500;8.28000;4.3759e-002;1.00000
78.13400;8.37000;4.4667e-002;1.00000
79.29500;8.46000;4.5634e-002;1.00000
80.44600;8.55000;4.6611e-002;1.00000
81.60300;8.64000;4.7551e-002;1.00000
82.77500;8.73000;4.8565e-002;1.00000
83.96600;8.82000;4.9479e-002;1.00000
85.16100;8.91000;5.0599e-002;1.00000
86.38500;9.00000;5.1618e-002;1.00000
87.60600;9.09000;5.2738e-002;1.00000
88.81500;9.18000;5.3778e-002;1.00000
90.03600;9.27000;5.4866e-002;1.00000
91.28400;9.36000;5.5880e-002;1.00000
92.50300;9.45000;5.6958e-002;1.00000
93.76500;9.54000;5.7998e-002;1.00000
95.01400;9.63000;5.9049e-002;1.00000
96.26500;9.72000;6.0053e-002;1.00000
97.51200;9.81000;6.1067e-002;1.00000
98.78800;9.90000;6.2028e-002;1.00000
100.053;9.99000;6.3074e-002;1.00000
101.331;10.08000;6.4003e-002;1.00000
102.612;10.17000;6.4928e-002;1.00000
103.886;10.26000;6.5910e-002;1.00000
105.157;10.35000;6.6766e-002;1.00000
106.441;10.44000;6.7690e-002;1.00000
107.721;10.53000;6.8572e-002;1.00000
108.998;10.62000;6.9449e-002;1.00000
110.29;10.71000;7.0278e-002;1.00000
111.563;10.80000;7.1028e-002;1.00000
112.844;10.89000;7.1799e-002;1.00000
114.13;10.98000;7.2518e-002;1.00000
115.394;11.07000;7.3209e-002;1.00000
116.677;11.16000;7.3901e-002;1.00000
117.974;11.25000;7.4577e-002;1.00000
119.252;11.34000;7.5180e-002;1.00000
120.517;11.43000;7.5813e-002;1.00000
121.814;11.52000;7.6283e-002;1.00000
123.096;11.61000;7.6833e-002;1.00000
124.388;11.70000;7.7361e-002;1.00000
125.659;11.79000;7.7831e-002;1.00000
126.94;11.88000;7.8264e-002;1.00000
128.223;11.97000;7.8687e-002;1.00000
129.489;12.06000;7.9030e-002;1.00000
130.758;12.15000;7.9410e-002;1.00000
132.042;12.24000;7.9785e-002;1.00000
133.317;12.33000;8.0187e-002;1.00000
134.572;12.42000;8.0577e-002;1.00000
135.832;12.51000;8.0931e-002;1.00000
137.106;12.60000;8.1280e-002;1.00000
138.375;12.69000;8.1555e-002;1.00000
139.635;12.78000;8.1834e-002;1.00000
140.883;12.87000;8.2030e-002;1.00000
142.155;12.96000;8.2299e-002;1.00000
143.39;13.05000;8.2511e-002;1.00000
144.634;13.14000;8.2706e-002;1.00000
145.872;13.23000;8.2922e-002;1.00000
147.119;13.32000;8.3139e-002;1.00000
148.339;13.41000;8.3334e-002;1.00000
149.574;13.50000;8.3440e-002;1.00000
150.796;13.59000;8.3731e-002;1.00000
151.998;13.68000;8.3878e-002;1.00000
153.212;13.77000;8.4053e-002;1.00000
154.428;13.86000;8.4227e-002;1.00000
155.627;13.95000;8.4370e-002;1.00000
156.833;14.04000;8.4576e-002;1.00000
158.027;14.13000;8.4724e-002;1.00000
159.204;14.22000;8.4856e-002;1.00000
160.398;14.31000;8.5051e-002;1.00000
161.555;14.40000;8.5204e-002;1.00000
162.733;14.49000;8.5400e-002;1.00000
163.881;14.58000;8.5542e-002;1.00000
165.025;14.67000;8.5701e-002;1.00000
166.168;14.76000;8.5901e-002;1.00000
167.33;14.85000;8.6060e-002;1.00000
168.469;14.94000;8.6261e-002;1.00000
169.587;15.03000;8.6445e-002;1.00000
170.709;15.12000;8.6688e-002;1.00000
171.833;15.21000;8.6736e-002;1.00000
172.965;15.30000;8.6989e-002;1.00000
174.073;15.39000;8.7158e-002;1.00000
175.185;15.48000;8.7327e-002;1.00000
176.281;15.57000;8.7401e-002;1.00000
177.368;15.66000;8.7607e-002;1.00000
178.453;15.75000;8.7687e-002;1.00000
179.532;15.84000;8.7803e-002;1.00000
180.614;15.93000;8.7845e-002;1.00000
181.689;16.02000;8.7856e-002;1.00000
182.76;16.11000;8.7898e-002;1.00000
183.818;16.20000;8.7850e-002;1.00000
184.867;16.29000;8.7861e-002;1.00000
185.926;16.38000;8.7808e-002;1.00000
186.954;16.47000;8.7687e-002;1.00000
188.015;16.56000;8.7555e-002;1.00000
189.035;16.65000;8.7364e-002;1.00000
190.08;16.74000;8.7206e-002;1.00000
191.081;16.83000;8.6989e-002;1.00000
192.113;16.92000;8.6773e-002;1.00000
193.133;17.01000;8.6451e-002;1.00000
194.15;17.10000;8.6097e-002;1.00000
195.139;17.19000;8.5648e-002;1.00000
196.149;17.28000;8.5188e-002;1.00000
197.128;17.37000;8.4660e-002;1.00000
198.115;17.46000;8.4137e-002;1.00000
199.116;17.55000;8.3493e-002;1.00000
200.099;17.64000;8.2785e-002;1.00000
201.085;17.73000;8.2051e-002;1.00000
202.053;17.82000;8.1222e-002;1.00000
203.024;17.91000;8.0350e-002;1.00000
203.971;18.00000;7.9373e-002;1.00000
204.931;18.09000;7.8333e-002;1.00000
205.891;18.18000;7.7239e-002;1.00000
206.835;18.27000;7.6062e-002;1.00000
207.789;18.36000;7.4831e-002;1.00000
208.74;18.45000;7.3489e-002;1.00000
209.684;18.54000;7.2021e-002;1.00000
210.608;18.63000;7.0505e-002;1.00000
211.529;18.72000;6.8905e-002;1.00000
212.455;18.81000;6.7194e-002;1.00000
213.397;18.90000;6.5445e-002;1.00000
214.319;18.99000;6.3586e-002;1.00000
215.237;19.08000;6.1590e-002;1.00000
216.149;19.17000;5.9525e-002;1.00000
217.064;19.26000;5.7349e-002;1.00000
217.956;19.35000;5.5146e-002;1.00000
218.87;19.44000;5.2764e-002;1.00000
219.769;19.53000;5.0356e-002;1.00000
220.656;19.62000;4.7921e-002;1.00000
221.572;19.71000;4.5327e-002;1.00000
222.471;19.80000;4.2755e-002;1.00000
223.365;19.89000;3.9988e-002;1.00000
224.248;19.98000;3.7183e-002;1.00000
225.133;20.07000;3.4363e-002;1.00000
226.01;20.16000;3.1511e-002;1.00000
226.899;20.25000;2.8495e-002;1.00000
227.776;20.34000;2.5532e-002;1.00000
228.67;20.43000;2.2452e-002;1.00000
229.546;20.52000;1.9342e-002;1.00000
230.418;20.61000;1.6194e-002;1.00000
231.288;20.70000;1.3040e-002;1.00000
232.164;20.79000;9.8081e-003;1.00000
233.026;20.88000;6.6021e-003;1.00000
233.905;20.97000;3.2852e-003;1.00000
234.766;21.06000;5.8099e-005;1.00000
235.634;21.15000;-3.1584e-003;1.00000
236.494;21.24000;-6.4542e-003;1.00000
237.37;21.33000;-9.7236e-003;1.00000
238.219;21.42000;-1.2961e-002;1.00000
239.083;21.51000;-1.6246e-002;1.00000
239.941;21.60000;-1.9452e-002;1.00000
240.8;21.69000;-2.2695e-002;1.00000
241.658;21.78000;-2.5875e-002;1.00000
242.523;21.87000;-2.9113e-002;1.00000
243.392;21.96000;-3.2308e-002;1.00000
244.243;22.05000;-3.5456e-002;1.00000
245.104;22.14000;-3.8604e-002;1.00000
245.964;22.23000;-4.1725e-002;1.00000
246.809;22.32000;-4.4789e-002;1.00000
247.656;22.41000;-4.7842e-002;1.00000
248.515;22.50000;-5.0857e-002;1.00000
249.368;22.59000;-5.3873e-002;1.00000
250.217;22.68000;-5.6778e-002;1.00000
251.069;22.77000;-5.9641e-002;1.00000
251.918;22.86000;-6.2509e-002;1.00000
252.768;22.95000;-6.5334e-002;1.00000
253.625;23.04000;-6.8134e-002;1.00000
254.476;23.13000;-7.0796e-002;1.00000
255.32;23.22000;-7.3526e-002;1.00000
256.175;23.31000;-7.6220e-002;1.00000
257.028;23.40000;-7.8797e-002;1.00000
257.88;23.49000;-8.1349e-002;1.00000
258.726;23.58000;-8.3942e-002;1.00000
259.575;23.67000;-8.6430e-002;1.00000
260.435;23.76000;-8.8827e-002;1.00000
261.268;23.85000;-9.1352e-002;1.00000
262.115;23.94000;-9.3697e-002;1.00000
262.962;24.03000;-9.6074e-002;1.00000
263.82;24.12000;-9.8398e-002;1.00000
264.69;24.21000;-0.10065;1.00000
265.52;24.30000;-0.10287;1.00000
266.381;24.39000;-0.10508;1.00000
267.221;24.48000;-0.10720;1.00000
268.075;24.57000;-0.10924;1.00000
268.92;24.66000;-0.11140;1.00000
269.777;24.75000;-0.11347;1.00000
270.629;24.84000;-0.11544;1.00000
271.478;24.93000;-0.11741;1.00000
272.325;25.02000;-0.11936;1.00000
273.169;25.11000;-0.12124;1.00000
274.036;25.20000;-0.12316;1.00000
274.891;25.29000;-0.12504;1.00000
275.739;25.38000;-0.12687;1.00000
276.591;25.47000;-0.12857;1.00000
277.445;25.56000;-0.13038;1.00000
278.303;25.65000;-0.13210;1.00000
279.151;25.74000;-0.13382;1.00000
280.008;25.83000;-0.13543;1.00000
280.854;25.92000;-0.13721;1.00000
281.711;26.01000;-0.13875;1.00000
282.569;26.10000;-0.14030;1.00000
283.442;26.19000;-0.14199;1.00000
284.281;26.28000;-0.14360;1.00000
285.133;26.37000;-0.14507;1.00000
285.996;26.46000;-0.14660;1.00000
286.848;26.55000;-0.14813;1.00000
287.709;26.64000;-0.14951;1.00000
288.571;26.73000;-0.15095;1.00000
289.442;26.82000;-0.15242;1.00000
290.299;26.91000;-0.15386;1.00000
291.152;27.00000;-0.15518;1.00000
292.029;27.09000;-0.15660;1.00000
292.892;27.18000;-0.15794;1.00000
293.742;27.27000;-0.15920;1.00000
294.62;27.36000;-0.16048;1.00000
295.479;27.45000;-0.16176;1.00000
296.338;27.54000;-0.16297;1.00000
297.202;27.63000;-0.16411;1.00000
298.056;27.72000;-0.16538;1.00000
298.924;27.81000;-0.16657;1.00000
299.784;27.90000;-0.16773;1.00000
300.653;27.99000;-0.16884;1.00000
301.528;28.08000;-0.17005;1.00000
302.39;28.17000;-0.17120;1.00000
303.251;28.26000;-0.17225;1.00000
304.128;28.35000;-0.17340;1.00000
304.995;28.44000;-0.17452;1.00000
305.86;28.53000;-0.17565;1.00000
306.732;28.62000;-0.17664;1.00000
307.593;28.71000;-0.17769;1.00000
308.46;28.80000;-0.17871;1.00000
309.334;28.89000;-0.17983;1.00000
310.201;28.98000;-0.18079;1.00000
311.083;29.07000;-0.18182;1.00000
311.949;29.16000;-0.18283;1.00000
312.834;29.25000;-0.18375;1.00000
313.705;29.34000;-0.18476;1.00000
314.574;29.43000;-0.18568;1.00000
315.453;29.52000;-0.18659;1.00000
316.335;29.61000;-0.18756;1.00000
317.188;29.70000;-0.18846;1.00000
318.089;29.79000;-0.18941;1.00000
318.959;29.88000;-0.19026;1.00000
319.835;29.97000;-0.19122;1.00000
320.709;30.06000;-0.19215;1.00000
321.583;30.15000;-0.19299;1.00000
322.464;30.24000;-0.19386;1.00000
323.343;30.33000;-0.19471;1.00000
324.223;30.42000;-0.19560;1.00000
325.103;30.51000;-0.19647;1.00000
325.97;30.60000;-0.19728;1.00000
326.859;30.69000;-0.19818;1.00000
327.734;30.78000;-0.19900;1.00000
328.625;30.87000;-0.19980;1.00000
329.505;30.96000;-0.20065;1.00000
330.382;31.05000;-0.20148;1.00000
331.261;31.14000;-0.20228;1.00000
332.139;31.23000;-0.20310;1.00000
333.026;31.32000;-0.20388;1.00000
333.912;31.41000;-0.20461;1.00000
334.796;31.50000;-0.20545;1.00000
335.685;31.59000;-0.20624;1.00000
336.554;31.68000;-0.20708;1.00000
337.436;31.77000;-0.20782;1.00000
338.328;31.86000;-0.20856;1.00000
339.211;31.95000;-0.20936;1.00000
340.099;32.04000;-0.21006;1.00000
340.986;32.13000;-0.21084;1.00000
341.87;32.22000;-0.21167;1.00000
342.755;32.31000;-0.21238;1.00000
343.627;32.40000;-0.21309;1.00000
344.525;32.49000;-0.21385;1.00000
345.396;32.58000;-0.21462;1.00000
346.307;32.67000;-0.21536;1.00000
347.189;32.76000;-0.21617;1.00000
348.073;32.85000;-0.21685;1.00000
348.946;32.94000;-0.21768;1.00000
349.848;33.03000;-0.21836;1.00000
350.73;33.12000;-0.21903;1.00000
351.612;33.21000;-0.21972;1.00000
352.502;33.30000;-0.22043;1.00000
353.392;33.39000;-0.22117;1.00000
354.283;33.48000;-0.22191;1.00000
355.17;33.57000;-0.22259;1.00000
356.069;33.66000;-0.22325;1.00000
356.946;33.75000;-0.22391;1.00000
357.839;33.84000;-0.22466;1.00000
358.725;33.93000;-0.22526;1.00000
359.628;34.02000;-0.22599;1.00000
360.511;34.11000;-0.22674;1.00000
361.402;34.20000;-0.22737;1.00000
362.299;34.29000;-0.22804;1.00000
363.176;34.38000;-0.22876;1.00000
364.074;34.47000;-0.22944;1.00000
364.957;34.56000;-0.23008;1.00000
365.843;34.65000;-0.23078;1.00000
366.737;34.74000;-0.23143;1.00000
367.635;34.83000;-0.23220;1.00000
368.514;34.92000;-0.23279;1.00000
369.416;35.01000;-0.23348;1.00000
370.306;35.10000;-0.23415;1.00000
371.2;35.19000;-0.23471;1.00000
372.083;35.28000;-0.23533;1.00000
372.986;35.37000;-0.23607;1.00000
373.873;35.46000;-0.23667;1.00000
374.759;35.55000;-0.23737;1.00000
375.657;35.64000;-0.23806;1.00000
376.544;35.73000;-0.23864;1.00000
377.443;35.82000;-0.23933;1.00000
378.352;35.91000;-0.23988;1.00000
379.229;36.00000;-0.24051;1.00000
380.12;36.09000;-0.24114;1.00000
381.018;36.18000;-0.24181;1.00000
381.904;36.27000;-0.24237;1.00000
382.784;36.36000;-0.24293;1.00000
383.684;36.45000;-0.24357;1.00000
384.577;36.54000;-0.24418;1.00000
385.463;36.63000;-0.24480;1.00000
386.355;36.72000;-0.24535;1.00000
387.251;36.81000;-0.24601;1.00000
388.14;36.90000;-0.24660;1.00000
389.028;36.99000;-0.24716;1.00000
389.923;37.08000;-0.24779;1.00000
390.827;37.17000;-0.24830;1.00000
391.698;37.26000;-0.24890;1.00000
392.601;37.35000;-0.24949;1.00000
393.502;37.44000;-0.25007;1.00000
394.392;37.53000;-0.25055;1.00000
395.288;37.62000;-0.25108;1.00000
396.171;37.71000;-0.25166;1.00000
397.066;37.80000;-0.25220;1.00000
397.957;37.89000;-0.25276;1.00000
398.85;37.98000;-0.25324;1.00000
399.754;38.07000;-0.25375;1.00000
400.636;38.16000;-0.25430;1.00000
401.526;38.25000;-0.25487;1.00000
402.413;38.34000;-0.25540;1.00000
403.313;38.43000;-0.25593;1.00000
404.199;38.52000;-0.25642;1.00000
405.102;38.61000;-0.25700;1.00000
405.988;38.70000;-0.25752;1.00000
406.89;38.79000;-0.25804;1.00000
407.781;38.88000;-0.25859;1.00000
408.676;38.97000;-0.25909;1.00000
409.568;39.06000;-0.25960;1.00000
410.46;39.15000;-0.26011;1.00000
411.354;39.24000;-0.26058;1.00000
412.248;39.33000;-0.26111;1.00000
413.14;39.42000;-0.26156;1.00000
414.037;39.51000;-0.26217;1.00000
414.917;39.60000;-0.26263;1.00000
415.81;39.69000;-0.26323;1.00000
416.694;39.78000;-0.26364;1.00000
417.6;39.87000;-0.26406;1.00000
418.492;39.96000;-0.26456;1.00000
419.388;40.05000;-0.26507;1.00000
420.272;40.14000;-0.26551;1.00000
421.166;40.23000;-0.26601;1.00000
422.076;40.32000;-0.26652;1.00000
422.966;40.41000;-0.26690;1.00000
423.857;40.50000;-0.26741;1.00000
424.74;40.59000;-0.26782;1.00000
425.637;40.68000;-0.26839;1.00000
426.538;40.77000;-0.26891;1.00000
427.425;40.86000;-0.26930;1.00000
428.317;40.95000;-0.26976;1.00000
429.21;41.04000;-0.27024;1.00000
430.108;41.13000;-0.27086;1.00000
430.997;41.22000;-0.27136;1.00000
431.892;41.31000;-0.27180;1.00000
432.787;41.40000;-0.27230;1.00000
433.676;41.49000;-0.27291;1.00000
434.573;41.58000;-0.27328;1.00000
435.459;41.67000;-0.27377;1.00000
436.354;41.76000;-0.27428;1.00000
437.244;41.85000;-0.27480;1.00000
438.149;41.94000;-0.27522;1.00000
439.036;42.03000;-0.27568;1.00000
439.932;42.12000;-0.27621;1.00000
440.828;42.21000;-0.27669;1.00000
441.727;42.30000;-0.27706;1.00000
442.623;42.39000;-0.27753;1.00000
443.51;42.48000;-0.27797;1.00000
444.415;42.57000;-0.27840;1.00000
445.299;42.66000;-0.27884;1.00000
446.206;42.75000;-0.27926;1.00000
447.088;42.84000;-0.27964;1.00000
447.991;42.93000;-0.28008;1.00000
448.881;43.02000;-0.28044;1.00000
449.786;43.11000;-0.28083;1.00000
450.685;43.20000;-0.28126;1.00000
451.577;43.29000;-0.28162;1.00000
452.476;43.38000;-0.28205;1.00000
453.369;43.47000;-0.28250;1.00000
454.262;43.56000;-0.28291;1.00000
455.17;43.65000;-0.28325;1.00000
456.058;43.74000;-0.28362;1.00000
456.944;43.83000;-0.28402;1.00000
457.836;43.92000;-0.28442;1.00000
458.734;44.01000;-0.28475;1.00000
459.622;44.10000;-0.28507;1.00000
460.525;44.19000;-0.28539;1.00000
461.421;44.28000;-0.28571;1.00000
462.314;44.37000;-0.28618;1.00000
463.205;44.46000;-0.28655;1.00000
464.096;44.55000;-0.28684;1.00000
464.996;44.64000;-0.28718;1.00000
465.892;44.73000;-0.28755;1.00000
466.763;44.82000;-0.28799;1.00000
467.672;44.91000;-0.28840;1.00000
468.566;45.00000;-0.28873;1.00000
469.454;45.09000;-0.28911;1.00000
470.348;45.18000;-0.28956;1.00000
471.247;45.27000;-0.28988;1.00000
472.141;45.36000;-0.29029;1.00000
473.034;45.45000;-0.29062;1.00000
473.923;45.54000;-0.29105;1.00000
474.825;45.63000;-0.29142;1.00000
475.712;45.72000;-0.29176;1.00000
476.615;45.81000;-0.29210;1.00000
477.517;45.90000;-0.29245;1.00000
478.397;45.99000;-0.29283;1.00000
479.304;46.08000;-0.29320;1.00000
480.199;46.17000;-0.29361;1.00000
481.081;46.26000;-0.29387;1.00000
481.979;46.35000;-0.29434;1.00000
482.868;46.44000;-0.29462;1.00000
483.77;46.53000;-0.29502;1.00000
484.661;46.62000;-0.29535;1.00000
485.564;46.71000;-0.29569;1.00000
486.465;46.80000;-0.29600;1.00000
487.357;46.89000;-0.29639;1.00000
488.261;46.98000;-0.29675;1.00000
489.142;47.07000;-0.29707;1.00000
490.039;47.16000;-0.29743;1.00000
490.939;47.25000;-0.29776;1.00000
491.829;47.34000;-0.29815;1.00000
492.721;47.43000;-0.29855;1.00000
493.617;47.52000;-0.29879;1.00000
494.52;47.61000;-0.29916;1.00000
495.413;47.70000;-0.29950;1.00000
496.306;47.79000;-0.29979;1.00000
497.2;47.88000;-0.30012;1.00000
498.109;47.97000;-0.30041;1.00000
498.994;48.06000;-0.30079;1.00000
499.889;48.15000;-0.30111;1.00000
500.79;48.24000;-0.30142;1.00000
501.687;48.33000;-0.30169;1.00000
502.581;48.42000;-0.30202;1.00000
503.473;48.51000;-0.30232;1.00000
504.369;48.60000;-0.30270;1.00000
505.27;48.69000;-0.30304;1.00000
506.167;48.78000;-0.30329;1.00000
507.056;48.87000;-0.30365;1.00000
507.965;48.96000;-0.30404;1.00000
508.852;49.05000;-0.30433;1.00000
509.746;49.14000;-0.30460;1.00000
510.644;49.23000;-0.30493;1.00000
511.543;49.32000;-0.30521;1.00000
512.443;49.41000;-0.30548;1.00000
513.337;49.50000;-0.30583;1.00000
514.23;49.59000;-0.30612;1.00000
515.129;49.68000;-0.30645;1.00000
516.015;49.77000;-0.30675;1.00000
516.918;49.86000;-0.30707;1.00000
517.812;49.95000;-0.30739;1.00000
518.713;50.04000;-0.30766;1.00000
519.608;50.13000;-0.30796;1.00000
520.496;50.22000;-0.30833;1.00000
521.403;50.31000;-0.30868;1.00000
522.295;50.40000;-0.30894;1.00000
523.197;50.49000;-0.30926;1.00000
524.102;50.58000;-0.30960;1.00000
524.998;50.67000;-0.30990;1.00000
525.876;50.76000;-0.31024;1.00000
526.787;50.85000;-0.31053;1.00000
527.677;50.94000;-0.31089;1.00000
528.574;51.03000;-0.31124;1.00000
529.479;51.12000;-0.31154;1.00000
530.37;51.21000;-0.31186;1.00000
531.276;51.30000;-0.31224;1.00000
532.169;51.39000;-0.31249;1.00000
533.072;51.48000;-0.31286;1.00000
533.975;51.57000;-0.31327;1.00000
534.877;51.66000;-0.31355;1.00000
535.766;51.75000;-0.31384;1.00000
536.669;51.84000;-0.31418;1.00000
537.561;51.93000;-0.31439;1.00000
538.463;52.02000;-0.31473;1.00000
539.369;52.11000;-0.31501;1.00000
540.251;52.20000;-0.31531;1.00000
541.161;52.29000;-0.31572;1.00000
542.048;52.38000;-0.31593;1.00000
542.944;52.47000;-0.31639;1.00000
543.839;52.56000;-0.31676;1.00000
544.754;52.65000;-0.31725;1.00000
545.648;52.74000;-0.31754;1.00000
546.541;52.83000;-0.31771;1.00000
547.442;52.92000;-0.31808;1.00000
548.342;53.01000;-0.31842;1.00000
549.232;53.10000;-0.31860;1.00000
550.131;53.19000;-0.31900;1.00000
551.038;53.28000;-0.31931;1.00000
551.92;53.37000;-0.31968;1.00000
552.826;53.46000;-0.31998;1.00000
553.731;53.55000;-0.32018;1.00000
554.615;53.64000;-0.32057;1.00000
555.517;53.73000;-0.32083;1.00000
556.417;53.82000;-0.32107;1.00000
557.317;53.91000;-0.32145;1.00000
558.203;54.00000;-0.32183;1.00000
559.111;54.09000;-0.32217;1.00000
560.012;54.18000;-0.32240;1.00000
560.899;54.27000;-0.32270;1.00000
561.794;54.36000;-0.32306;1.00000
562.708;54.45000;-0.32340;1.00000
563.6;54.54000;-0.32358;1.00000
564.503;54.63000;-0.32394;1.00000
565.393;54.72000;-0.32423;1.00000
566.29;54.81000;-0.32429;1.00000
567.191;54.90000;-0.32426;1.00000
568.086;54.99000;-0.32440;1.00000
568.979;55.08000;-0.32470;1.00000
569.887;55.17000;-0.32500;1.00000
570.77;55.26000;-0.32528;1.00000
571.669;55.35000;-0.32562;1.00000
572.578;55.44000;-0.32599;1.00000
573.469;55.53000;-0.32633;1.00000
574.377;55.62000;-0.32676;1.00000
575.266;55.71000;-0.32717;1.00000
576.161;55.80000;-0.32755;1.00000
577.062;55.89000;-0.32795;1.00000
577.961;55.98000;-0.32842;1.00000
578.853;56.07000;-0.32875;1.00000
579.752;56.16000;-0.32919;1.00000
580.646;56.25000;-0.32959;1.00000
581.55;56.34000;-0.33004;1.00000
582.455;56.43000;-0.33036;1.00000
583.346;56.52000;-0.33083;1.00000
584.24;56.61000;-0.33121;1.00000
585.142;56.70000;-0.33163;1.00000
586.047;56.79000;-0.33193;1.00000
586.94;56.88000;-0.33241;1.00000
587.839;56.97000;-0.33274;1.00000
588.742;57.06000;-0.33311;1.00000
589.637;57.15000;-0.33350;1.00000
590.533;57.24000;-0.33390;1.00000
591.423;57.33000;-0.33434;1.00000
592.332;57.42000;-0.33467;1.00000
593.232;57.51000;-0.33496;1.00000
594.126;57.60000;-0.33540;1.00000
595.038;57.69000;-0.33564;1.00000
595.928;57.78000;-0.33610;1.00000
596.835;57.87000;-0.33648;1.00000
597.731;57.96000;-0.33683;1.00000
598.636;58.05000;-0.33742;1.00000
599.534;58.14000;-0.33775;1.00000
600.425;58.23000;-0.33811;1.00000
601.341;58.32000;-0.33850;1.00000
602.242;58.41000;-0.33874;1.00000
603.132;58.50000;-0.33913;1.00000
604.028;58.59000;-0.33943;1.00000
604.929;58.68000;-0.33982;1.00000
605.824;58.77000;-0.34015;1.00000
606.739;58.86000;-0.34056;1.00000
607.631;58.95000;-0.34086;1.00000
608.531;59.04000;-0.34132;1.00000
609.433;59.13000;-0.34156;1.00000
610.319;59.22000;-0.34200;1.00000
611.23;59.31000;-0.34232;1.00000
612.129;59.40000;-0.34272;1.00000
613.026;59.49000;-0.34307;1.00000
613.929;59.58000;-0.34342;1.00000
614.834;59.67000;-0.34377;1.00000
615.729;59.76000;-0.34409;1.00000
616.629;59.85000;-0.34435;1.00000
617.533;59.94000;-0.34457;1.00000
618.428;60.03000;-0.34481;1.00000
619.332;60.12000;-0.34521;1.00000
620.226;60.21000;-0.34570;1.00000
621.122;60.30000;-0.34604;1.00000
622.015;60.39000;-0.34635;1.00000
622.914;60.48000;-0.34672;1.00000
623.82;60.57000;-0.34714;1.00000
624.719;60.66000;-0.34740;1.00000
625.613;60.75000;-0.34773;1.00000
626.509;60.84000;-0.34798;1.00000
627.419;60.93000;-0.34838;1.00000
628.3;61.02000;-0.34874;1.00000
629.213;61.11000;-0.34912;1.00000
630.1;61.20000;-0.34940;1.00000
631;61.29000;-0.34980;1.00000
631.898;61.38000;-0.35009;1.00000
632.809;61.47000;-0.35040;1.00000
633.708;61.56000;-0.35079;1.00000
634.599;61.65000;-0.35113;1.00000
635.493;61.74000;-0.35145;1.00000
636.402;61.83000;-0.35178;1.00000
637.302;61.92000;-0.35217;1.00000
638.187;62.01000;-0.35260;1.00000
639.091;62.10000;-0.35293;1.00000
639.992;62.19000;-0.35331;1.00000
640.894;62.28000;-0.35368;1.00000
641.788;62.37000;-0.35400;1.00000
642.695;62.46000;-0.35439;1.00000
643.587;62.55000;-0.35464;1.00000
644.49;62.64000;-0.35514;1.00000
645.389;62.73000;-0.35556;1.00000
646.29;62.82000;-0.35592;1.00000
647.19;62.91000;-0.35629;1.00000
648.089;63.00000;-0.35667;1.00000
648.986;63.09000;-0.35699;1.00000
649.881;63.18000;-0.35737;1.00000
650.785;63.27000;-0.35772;1.00000
651.667;63.36000;-0.35814;1.00000
652.572;63.45000;-0.35846;1.00000
653.482;63.54000;-0.35875;1.00000
654.38;63.63000;-0.35904;1.00000
655.273;63.72000;-0.35941;1.00000
656.177;63.81000;-0.35976;1.00000
657.073;63.90000;-0.36020;1.00000
657.961;63.99000;-0.36043;1.00000
658.866;64.08000;-0.36090;1.00000
659.768;64.17000;-0.36130;1.00000
660.668;64.26000;-0.36168;1.00000
661.57;64.35000;-0.36195;1.00000
662.47;64.44000;-0.36229;1.00000
663.368;64.53000;-0.36273;1.00000
664.273;64.62000;-0.36317;1.00000
665.164;64.71000;-0.36352;1.00000
666.073;64.80000;-0.36380;1.00000
666.971;64.89000;-0.36421;1.00000
667.867;64.98000;-0.36454;1.00000
668.775;65.07000;-0.36489;1.00000
669.678;65.16000;-0.36506;1.00000
670.571;65.25000;-0.36541;1.00000
671.474;65.34000;-0.36581;1.00000
672.37;65.43000;-0.36627;1.00000
673.268;65.52000;-0.36663;1.00000
674.169;65.61000;-0.36702;1.00000
675.081;65.70000;-0.36744;1.00000
675.975;65.79000;-0.36790;1.00000
676.871;65.88000;-0.36828;1.00000
677.771;65.97000;-0.36868;1.00000
678.671;66.06000;-0.36912;1.00000
679.579;66.15000;-0.36952;1.00000
680.477;66.24000;-0.36994;1.00000
681.384;66.33000;-0.37031;1.00000
682.281;66.42000;-0.37072;1.00000
683.192;66.51000;-0.37120;1.00000
684.09;66.60000;-0.37159;1.00000
684.983;66.69000;-0.37198;1.00000
685.886;66.78000;-0.37221;1.00000
686.783;66.87000;-0.37273;1.00000
687.691;66.96000;-0.37310;1.00000
688.595;67.05000;-0.37339;1.00000
689.492;67.14000;-0.37381;1.00000
690.394;67.23000;-0.37417;1.00000
691.291;67.32000;-0.37457;1.00000
692.2;67.41000;-0.37486;1.00000
693.093;67.50000;-0.37523;1.00000
693.987;67.59000;-0.37569;1.00000
694.891;67.68000;-0.37612;1.00000
695.793;67.77000;-0.37640;1.00000
696.701;67.86000;-0.37685;1.00000
697.593;67.95000;-0.37728;1.00000
698.494;68.04000;-0.37766;1.00000
699.407;68.13000;-0.37798;1.00000
700.304;68.22000;-0.37841;1.00000
701.194;68.31000;-0.37885;1.00000
702.106;68.40000;-0.37926;1.00000
702.999;68.49000;-0.37963;1.00000
703.903;68.58000;-0.38005;1.00000
704.799;68.67000;-0.38054;1.00000
705.704;68.76000;-0.38105;1.00000
706.605;68.85000;-0.38156;1.00000
707.507;68.94000;-0.38189;1.00000
708.401;69.03000;-0.38233;1.00000
709.298;69.12000;-0.38278;1.00000
710.195;69.21000;-0.38312;1.00000
711.098;69.30000;-0.38351;1.00000
712.006;69.39000;-0.38398;1.00000
712.904;69.48000;-0.38441;1.00000
713.798;69.57000;-0.38480;1.00000
714.701;69.66000;-0.38508;1.00000
715.601;69.75000;-0.38559;1.00000
716.497;69.84000;-0.38605;1.00000
717.409;69.93000;-0.38634;1.00000
718.307;70.02000;-0.38671;1.00000
719.212;70.11000;-0.38716;1.00000
720.099;70.20000;-0.38766;1.00000
720.996;70.29000;-0.38803;1.00000
721.904;70.38000;-0.38832;1.00000
722.812;70.47000;-0.38882;1.00000
723.697;70.56000;-0.38924;1.00000
724.6;70.65000;-0.38969;1.00000
725.498;70.74000;-0.39016;1.00000
726.402;70.83000;-0.39055;1.00000
727.3;70.92000;-0.39088;1.00000
728.199;71.01000;-0.39137;1.00000
729.104;71.10000;-0.39183;1.00000
730.009;71.19000;-0.39201;1.00000
730.907;71.28000;-0.39236;1.00000
731.808;71.37000;-0.39263;1.00000
732.712;71.46000;-0.39296;1.00000
733.604;71.55000;-0.39337;1.00000
734.504;71.64000;-0.39380;1.00000
735.407;71.73000;-0.39415;1.00000
736.309;71.82000;-0.39454;1.00000
737.212;71.91000;-0.39508;1.00000
738.11;72.00000;-0.39556;1.00000
739.018;72.09000;-0.39587;1.00000
739.913;72.18000;-0.39636;1.00000
740.808;72.27000;-0.39686;1.00000
741.72;72.36000;-0.39727;1.00000
742.621;72.45000;-0.39776;1.00000
743.53;72.54000;-0.39830;1.00000
744.425;72.63000;-0.39867;1.00000
745.33;72.72000;-0.39913;1.00000
746.228;72.81000;-0.39960;1.00000
747.133;72.90000;-0.40007;1.00000
748.041;72.99000;-0.40048;1.00000
748.928;73.08000;-0.40091;1.00000
749.836;73.17000;-0.40146;1.00000
750.733;73.26000;-0.40192;1.00000
751.636;73.35000;-0.40230;1.00000
752.537;73.44000;-0.40273;1.00000
753.436;73.53000;-0.40321;1.00000
754.354;73.62000;-0.40365;1.00000
755.252;73.71000;-0.40409;1.00000
756.149;73.80000;-0.40445;1.00000
757.05;73.89000;-0.40492;1.00000
757.941;73.98000;-0.40536;1.00000
758.844;74.07000;-0.40575;1.00000
759.736;74.16000;-0.40627;1.00000
760.645;74.25000;-0.40668;1.00000
761.544;74.34000;-0.40715;1.00000
762.444;74.43000;-0.40759;1.00000
763.341;74.52000;-0.40804;1.00000
764.252;74.61000;-0.40850;1.00000
765.151;74.70000;-0.40894;1.00000
766.037;74.79000;-0.40943;1.00000
766.944;74.88000;-0.40986;1.00000
767.852;74.97000;-0.41033;1.00000
768.763;75.06000;-0.41081;1.00000
769.652;75.15000;-0.41125;1.00000
770.555;75.24000;-0.41160;1.00000
771.45;75.33000;-0.41208;1.00000
772.356;75.42000;-0.41252;1.00000
773.258;75.51000;-0.41302;1.00000
774.162;75.60000;-0.41345;1.00000
775.054;75.69000;-0.41387;1.00000
775.943;75.78000;-0.41429;1.00000
776.855;75.87000;-0.41469;1.00000
777.763;75.96000;-0.41517;1.00000
778.652;76.05000;-0.41556;1.00000
779.553;76.14000;-0.41604;1.00000
780.452;76.23000;-0.41645;1.00000
781.355;76.32000;-0.41690;1.00000
782.25;76.41000;-0.41736;1.00000
783.156;76.50000;-0.41784;1.00000
784.052;76.59000;-0.41818;1.00000
784.957;76.68000;-0.41851;1.00000
785.853;76.77000;-0.41889;1.00000
786.759;76.86000;-0.41935;1.00000
787.662;76.95000;-0.41973;1.00000
788.573;77.04000;-0.42014;1.00000
789.457;77.13000;-0.42068;1.00000
790.367;77.22000;-0.42111;1.00000
791.265;77.31000;-0.42156;1.00000
792.155;77.40000;-0.42212;1.00000
793.064;77.49000;-0.42250;1.00000
793.969;77.58000;-0.42295;1.00000
794.874;77.67000;-0.42328;1.00000
795.774;77.76000;-0.42379;1.00000
796.669;77.85000;-0.42430;1.00000
797.567;77.94000;-0.42470;1.00000
798.462;78.03000;-0.42510;1.00000
799.364;78.12000;-0.42557;1.00000
800.272;78.21000;-0.42603;1.00000
801.17;78.30000;-0.42647;1.00000
802.07;78.39000;-0.42691;1.00000
802.973;78.48000;-0.42738;1.00000
803.876;78.57000;-0.42794;1.00000
804.777;78.66000;-0.42839;1.00000
805.674;78.75000;-0.42886;1.00000
806.58;78.84000;-0.42932;1.00000
807.476;78.93000;-0.42972;1.00000
808.373;79.02000;-0.43017;1.00000
809.281;79.11000;-0.43064;1.00000
810.193;79.20000;-0.43107;1.00000
811.094;79.29000;-0.43159;1.00000
811.987;79.38000;-0.43210;1.00000
812.894;79.47000;-0.43255;1.00000
813.791;79.56000;-0.43306;1.00000
814.7;79.65000;-0.43356;1.00000
815.606;79.74000;-0.43405;1.00000
816.504;79.83000;-0.43442;1.00000
817.401;79.92000;-0.43480;1.00000
818.309;80.01000;-0.43525;1.00000
819.211;80.10000;-0.43564;1.00000
820.114;80.19000;-0.43616;1.00000
821.024;80.28000;-0.43659;1.00000
821.924;80.37000;-0.43707;1.00000
822.817;80.46000;-0.43745;1.00000
823.72;80.55000;-0.43793;1.00000
824.617;80.64000;-0.43835;1.00000
825.519;80.73000;-0.43877;1.00000
826.431;80.82000;-0.43927;1.00000
827.326;80.91000;-0.43962;1.00000
828.227;81.00000;-0.44017;1.00000
829.128;81.09000;-0.44052;1.00000
830.029;81.18000;-0.44090;1.00000
830.929;81.27000;-0.44125;1.00000
831.832;81.36000;-0.44173;1.00000
832.738;81.45000;-0.44217;1.00000
833.641;81.54000;-0.44255;1.00000
834.534;81.63000;-0.44293;1.00000
835.448;81.72000;-0.44336;1.00000
836.346;81.81000;-0.44378;1.00000
837.238;81.90000;-0.44414;1.00000
838.145;81.99000;-0.44455;1.00000
839.045;82.08000;-0.44494;1.00000
839.942;82.17000;-0.44535;1.00000
840.84;82.26000;-0.44579;1.00000
841.742;82.35000;-0.44610;1.00000
842.642;82.44000;-0.44657;1.00000
843.544;82.53000;-0.44696;1.00000
844.451;82.62000;-0.44736;1.00000
845.36;82.71000;-0.44779;1.00000
846.258;82.80000;-0.44816;1.00000
847.156;82.89000;-0.44863;1.00000
848.06;82.98000;-0.44900;1.00000
848.949;83.07000;-0.44946;1.00000
849.867;83.16000;-0.44984;1.00000
850.767;83.25000;-0.45024;1.00000
851.658;83.34000;-0.45056;1.00000
852.569;83.43000;-0.45102;1.00000
853.459;83.52000;-0.45149;1.00000
854.358;83.61000;-0.45200;1.00000
855.263;83.70000;-0.45242;1.00000
856.17;83.79000;-0.45275;1.00000
857.075;83.88000;-0.45331;1.00000
857.975;83.97000;-0.45366;1.00000
858.865;84.06000;-0.45410;1.00000
859.773;84.15000;-0.45451;1.00000
860.683;84.24000;-0.45500;1.00000
861.583;84.33000;-0.45537;1.00000
862.475;84.42000;-0.45578;1.00000
863.379;84.51000;-0.45618;1.00000
864.285;84.60000;-0.45663;1.00000
865.19;84.69000;-0.45696;1.00000
866.085;84.78000;-0.45745;1.00000
867.003;84.87000;-0.45790;1.00000
867.902;84.96000;-0.45831;1.00000
868.812;85.05000;-0.45874;1.00000
869.704;85.14000;-0.45914;1.00000
870.607;85.23000;-0.45952;1.00000
871.517;85.32000;-0.45992;1.00000
872.415;85.41000;-0.46030;1.00000
873.314;85.50000;-0.46062;1.00000
874.215;85.59000;-0.46096;1.00000
875.115;85.68000;-0.46141;1.00000
876.016;85.77000;-0.46171;1.00000
876.918;85.86000;-0.46201;1.00000
877.821;85.95000;-0.46244;1.00000
878.715;86.04000;-0.46270;1.00000
879.617;86.13000;-0.46310;1.00000
880.517;86.22000;-0.46337;1.00000
881.422;86.31000;-0.46374;1.00000
882.322;86.40000;-0.46410;1.00000
883.224;86.49000;-0.46440;1.00000
884.123;86.58000;-0.46480;1.00000
885.016;86.67000;-0.46508;1.00000
885.927;86.76000;-0.46541;1.00000
886.833;86.85000;-0.46571;1.00000
887.732;86.94000;-0.46599;1.00000
888.633;87.03000;-0.46628;1.00000
889.534;87.12000;-0.46652;1.00000
890.433;87.21000;-0.46675;1.00000
891.346;87.30000;-0.46693;1.00000
892.231;87.39000;-0.46716;1.00000
893.126;87.48000;-0.46737;1.00000
894.039;87.57000;-0.46758;1.00000
894.947;87.66000;-0.46787;1.00000
895.846;87.75000;-0.46811;1.00000
896.738;87.84000;-0.46831;1.00000
897.652;87.93000;-0.46845;1.00000
898.547;88.02000;-0.46858;1.00000
899.45;88.11000;-0.46878;1.00000
900.353;88.20000;-0.46898;1.00000
901.253;88.29000;-0.46914;1.00000
902.162;88.38000;-0.46926;1.00000
903.059;88.47000;-0.46940;1.00000
903.967;88.56000;-0.46950;1.00000
904.861;88.65000;-0.46965;1.00000
905.76;88.74000;-0.46982;1.00000
906.668;88.83000;-0.46990;1.00000
907.569;88.92000;-0.47002;1.00000
908.471;89.01000;-0.47006;1.00000
909.377;89.10000;-0.47010;1.00000
910.27;89.19000;-0.47010;1.00000
911.183;89.28000;-0.47010;1.00000
912.09;89.37000;-0.47005;1.00000
912.984;89.46000;-0.47011;1.00000
913.882;89.55000;-0.47003;1.00000
914.788;89.64000;-0.46994;1.00000
915.691;89.73000;-0.46995;1.00000
916.598;89.82000;-0.46973;1.00000
917.501;89.91000;-0.46973;1.00000
918.402;90.00000;-0.46968;1.00000
919.305;90.09000;-0.46950;1.00000
920.202;90.18000;-0.46937;1.00000
921.11;90.27000;-0.46920;1.00000
922.002;90.36000;-0.46891;1.00000
922.91;90.45000;-0.46870;1.00000
923.809;90.54000;-0.46842;1.00000
924.708;90.63000;-0.46805;1.00000
925.61;90.72000;-0.46779;1.00000
926.511;90.81000;-0.46750;1.00000
927.411;90.90000;-0.46718;1.00000
928.306;90.99000;-0.46683;1.00000
929.212;91.08000;-0.46654;1.00000
930.124;91.17000;-0.46621;1.00000
931.02;91.26000;-0.46579;1.00000
931.92;91.35000;-0.46541;1.00000
932.818;91.44000;-0.46506;1.00000
933.716;91.53000;-0.46452;1.00000
934.62;91.62000;-0.46411;1.00000
935.521;91.71000;-0.46371;1.00000
936.417;91.80000;-0.46321;1.00000
937.322;91.89000;-0.46279;1.00000
938.228;91.98000;-0.46237;1.00000
939.128;92.07000;-0.46190;1.00000
940.026;92.16000;-0.46137;1.00000
940.921;92.25000;-0.46082;1.00000
941.827;92.34000;-0.46023;1.00000
942.724;92.43000;-0.45971;1.00000
943.611;92.52000;-0.45904;1.00000
944.532;92.61000;-0.45842;1.00000
945.432;92.70000;-0.45782;1.00000
946.325;92.79000;-0.45718;1.00000
947.225;92.88000;-0.45653;1.00000
948.13;92.97000;-0.45588;1.00000
949.023;93.06000;-0.45527;1.00000
949.923;93.15000;-0.45467;1.00000
950.83;93.24000;-0.45398;1.00000
951.727;93.33000;-0.45334;1.00000
952.64;93.42000;-0.45263;1.00000
953.528;93.51000;-0.45196;1.00000
954.435;93.60000;-0.45119;1.00000
955.339;93.69000;-0.45046;1.00000
956.244;93.78000;-0.44978;1.00000
957.141;93.87000;-0.44898;1.00000
958.047;93.96000;-0.44813;1.00000
958.955;94.05000;-0.44741;1.00000
959.842;94.14000;-0.44655;1.00000
960.754;94.23000;-0.44566;1.00000
961.658;94.32000;-0.44488;1.00000
962.558;94.41000;-0.44400;1.00000
963.456;94.50000;-0.44310;1.00000
964.357;94.59000;-0.44214;1.00000
965.262;94.68000;-0.44132;1.00000
966.167;94.77000;-0.44034;1.00000
967.061;94.86000;-0.43937;1.00000
967.964;94.95000;-0.43842;1.00000
968.872;95.04000;-0.43759;1.00000
969.769;95.13000;-0.43662;1.00000
970.669;95.22000;-0.43573;1.00000
971.565;95.31000;-0.43477;1.00000
972.476;95.40000;-0.43398;1.00000
973.368;95.49000;-0.43309;1.00000
974.273;95.58000;-0.43214;1.00000
975.182;95.67000;-0.43128;1.00000
976.079;95.76000;-0.43047;1.00000
976.981;95.85000;-0.42957;1.00000
977.882;95.94000;-0.42876;1.00000
978.787;96.03000;-0.42794;1.00000
979.694;96.12000;-0.42708;1.00000
980.579;96.21000;-0.42639;1.00000
981.485;96.30000;-0.42557;1.00000
982.394;96.39000;-0.42484;1.00000
983.296;96.48000;-0.42410;1.00000
984.192;96.57000;-0.42345;1.00000
985.096;96.66000;-0.42284;1.00000
985.998;96.75000;-0.42220;1.00000
986.906;96.84000;-0.42155;1.00000
987.799;96.93000;-0.42093;1.00000
988.697;97.02000;-0.42041;1.00000
989.601;97.11000;-0.41991;1.00000
990.506;97.20000;-0.41938;1.00000
991.411;97.29000;-0.41894;1.00000
992.313;97.38000;-0.41853;1.00000
993.223;97.47000;-0.41815;1.00000
994.131;97.56000;-0.41780;1.00000
995.021;97.65000;-0.41754;1.00000
995.928;97.74000;-0.41725;1.00000
996.835;97.83000;-0.41698;1.00000
997.731;97.92000;-0.41681;1.00000
998.627;98.01000;-0.41660;1.00000
999.531;98.10000;-0.41645;1.00000
1000.44;98.19000;-0.41647;1.00000
1001.34;98.28000;-0.41645;1.00000
1002.24;98.37000;-0.41649;1.00000
1003.15;98.46000;-0.41657;1.00000
1004.05;98.55000;-0.41668;1.00000
1004.96;98.64000;-0.41683;1.00000
1005.86;98.73000;-0.41711;1.00000
1006.77;98.82000;-0.41733;1.00000
1007.67;98.91000;-0.41763;1.00000
1008.58;99.00000;-0.41790;1.00000
1009.48;99.09000;-0.41835;1.00000
1010.39;99.18000;-0.41883;1.00000
1011.29;99.27000;-0.41934;1.00000
1012.19;99.36000;-0.41989;1.00000
1013.1;99.45000;-0.42035;1.00000
1014;99.54000;-0.42105;1.00000
1014.92;99.63000;-0.42169;1.00000
1015.82;99.72000;-0.42246;1.00000
1016.72;99.81000;-0.42316;1.00000
1017.62;99.90000;-0.42404;1.00000
1018.52;99.99000;-0.42475;1.00000
1019.41;100.08;-0.42566;1.00000
1020.33;100.17;-0.42662;1.00000
1021.24;100.26;-0.42761;1.00000
1022.14;100.35;-0.42865;1.00000
1023.04;100.44;-0.42979;1.00000
1023.94;100.53;-0.43102;1.00000
1024.84;100.62;-0.43233;1.00000
1025.75;100.71;-0.43369;1.00000
1026.65;100.8;-0.43522;1.00000
1027.56;100.89;-0.43686;1.00000
1028.46;100.98;-0.43851;1.00000
1029.36;101.07;-0.44017;1.00000
1030.26;101.16;-0.44179;1.00000
1031.17;101.25;-0.44319;1.00000
1032.07;101.34;-0.44447;1.00000
1032.98;101.43;-0.44526;1.00000
1033.89;101.52;-0.44591;1.00000
1034.78;101.61;-0.44604;1.00000
1035.69;101.7;-0.44582;1.00000
1036.59;101.79;-0.44526;1.00000
1037.49;101.88;-0.44435;1.00000
1038.38;101.97;-0.44321;1.00000
1039.29;102.06;-0.44198;1.00000
1040.19;102.15;-0.44049;1.00000
1041.09;102.24;-0.43901;1.00000
1042;102.33;-0.43760;1.00000
1042.9;102.42;-0.43625;1.00000
1043.8;102.51;-0.43490;1.00000
1044.69;102.6;-0.43374;1.00000
1045.59;102.69;-0.43267;1.00000
1046.51;102.78;-0.43159;1.00000
1047.42;102.87;-0.43054;1.00000
1048.31;102.96;-0.42961;1.00000
1049.21;103.05;-0.42869;1.00000
1050.1;103.14;-0.42778;1.00000
1051.01;103.23;-0.42690;1.00000
1051.92;103.32;-0.42607;1.00000
1052.82;103.41;-0.42532;1.00000
1053.72;103.5;-0.42465;1.00000
1054.62;103.59;-0.42389;1.00000
1055.53;103.68;-0.42321;1.00000
1056.43;103.77;-0.42250;1.00000
1057.34;103.86;-0.42189;1.00000
1058.23;103.95;-0.42129;1.00000
1059.14;104.04;-0.42071;1.00000
1060.05;104.13;-0.42010;1.00000
1060.94;104.22;-0.41949;1.00000
1061.85;104.31;-0.41892;1.00000
1062.75;104.4;-0.41834;1.00000
1063.65;104.49;-0.41778;1.00000
1064.56;104.58;-0.41715;1.00000
1065.46;104.67;-0.41662;1.00000
1066.36;104.76;-0.41612;1.00000
1067.26;104.85;-0.41562;1.00000
1068.16;104.94;-0.41502;1.00000
1069.06;105.03;-0.41460;1.00000
1069.97;105.12;-0.41424;1.00000
1070.87;105.21;-0.41370;1.00000
1071.78;105.3;-0.41333;1.00000
1072.67;105.39;-0.41288;1.00000
1073.58;105.48;-0.41242;1.00000
1074.47;105.57;-0.41199;1.00000
1075.38;105.66;-0.41168;1.00000
1076.28;105.75;-0.41124;1.00000
1077.18;105.84;-0.41081;1.00000
1078.08;105.93;-0.41044;1.00000
1078.99;106.02;-0.41008;1.00000
1079.89;106.11;-0.40974;1.00000
1080.79;106.2;-0.40939;1.00000
1081.7;106.29;-0.40903;1.00000
1082.6;106.38;-0.40864;1.00000
1083.5;106.47;-0.40834;1.00000
1084.4;106.56;-0.40800;1.00000
1085.3;106.65;-0.40770;1.00000
1086.21;106.74;-0.40733;1.00000
1087.12;106.83;-0.40701;1.00000
1088.01;106.92;-0.40670;1.00000
1088.91;107.01;-0.40645;1.00000
1089.81;107.1;-0.40607;1.00000
1090.72;107.19;-0.40574;1.00000
1091.62;107.28;-0.40546;1.00000
1092.53;107.37;-0.40516;1.00000
1093.43;107.46;-0.40493;1.00000
1094.33;107.55;-0.40461;1.00000
1095.24;107.64;-0.40432;1.00000
1096.15;107.73;-0.40408;1.00000
1097.05;107.82;-0.40381;1.00000
1097.95;107.91;-0.40358;1.00000
1098.86;108;-0.40328;1.00000
1099.76;108.09;-0.40302;1.00000
1100.68;108.18;-0.40275;1.00000
1101.56;108.27;-0.40243;1.00000
1102.46;108.36;-0.40216;1.00000
1103.37;108.45;-0.40190;1.00000
1104.28;108.54;-0.40163;1.00000
1105.18;108.63;-0.40138;1.00000
1106.08;108.72;-0.40106;1.00000
1106.98;108.81;-0.40075;1.00000
1107.88;108.9;-0.40047;1.00000
1108.79;108.99;-0.40015;1.00000
1109.7;109.08;-0.39994;1.00000
1110.59;109.17;-0.39958;1.00000
1111.5;109.26;-0.39932;1.00000
1112.39;109.35;-0.39903;1.00000
1113.3;109.44;-0.39873;1.00000
1114.21;109.53;-0.39848;1.00000
1115.1;109.62;-0.39824;1.00000
1116.01;109.71;-0.39793;1.00000
1116.91;109.8;-0.39765;1.00000
1117.82;109.89;-0.39728;1.00000
1118.71;109.98;-0.39703;1.00000
1119.62;110.07;-0.39663;1.00000
1120.52;110.16;-0.39633;1.00000
1121.41;110.25;-0.39599;1.00000
1122.33;110.34;-0.39565;1.00000
1123.22;110.43;-0.39528;1.00000
1124.13;110.52;-0.39493;1.00000
1125.04;110.61;-0.39464;1.00000
1125.93;110.7;-0.39427;1.00000
1126.84;110.79;-0.39396;1.00000
1127.74;110.88;-0.39365;1.00000
1128.64;110.97;-0.39330;1.00000
1129.54;111.06;-0.39293;1.00000
1130.44;111.15;-0.39265;1.00000
1131.34;111.24;-0.39219;1.00000
1132.24;111.33;-0.39186;1.00000
1133.14;111.42;-0.39151;1.00000
1134.04;111.51;-0.39120;1.00000
1134.94;111.6;-0.39080;1.00000
1135.85;111.69;-0.39060;1.00000
1136.74;111.78;-0.39024;1.00000
1137.65;111.87;-0.38993;1.00000
1138.55;111.96;-0.38959;1.00000
1139.45;112.05;-0.38920;1.00000
1140.35;112.14;-0.38890;1.00000
1141.27;112.23;-0.38848;1.00000
1142.15;112.32;-0.38810;1.00000
1143.06;112.41;-0.38787;1.00000
1143.96;112.5;-0.38759;1.00000
1144.86;112.59;-0.38721;1.00000
1145.77;112.68;-0.38694;1.00000
1146.66;112.77;-0.38654;1.00000
1147.56;112.86;-0.38615;1.00000
1148.47;112.95;-0.38585;1.00000
1149.37;113.04;-0.38548;1.00000
1150.28;113.13;-0.38516;1.00000
1151.18;113.22;-0.38484;1.00000
1152.08;113.31;-0.38450;1.00000
1152.98;113.4;-0.38422;1.00000
1153.88;113.49;-0.38386;1.00000
1154.79;113.58;-0.38351;1.00000
1155.7;113.67;-0.38317;1.00000
1156.59;113.76;-0.38279;1.00000
1157.49;113.85;-0.38241;1.00000
1158.4;113.94;-0.38204;1.00000
1159.29;114.03;-0.38166;1.00000
1160.21;114.12;-0.38135;1.00000
1161.11;114.21;-0.38096;1.00000
1162.01;114.3;-0.38061;1.00000
1162.91;114.39;-0.38027;1.00000
1163.82;114.48;-0.37993;1.00000
1164.72;114.57;-0.37957;1.00000
1165.63;114.66;-0.37922;1.00000
1166.53;114.75;-0.37880;1.00000
1167.43;114.84;-0.37837;1.00000
1168.34;114.93;-0.37803;1.00000
1169.24;115.02;-0.37761;1.00000
1170.14;115.11;-0.37732;1.00000
1171.04;115.2;-0.37698;1.00000
1171.94;115.29;-0.37658;1.00000
1172.84;115.38;-0.37617;1.00000
1173.74;115.47;-0.37583;1.00000
1174.64;115.56;-0.37550;1.00000
1175.56;115.65;-0.37498;1.00000
1176.45;115.74;-0.37467;1.00000
1177.35;115.83;-0.37426;1.00000
1178.25;115.92;-0.37382;1.00000
1179.15;116.01;-0.37347;1.00000
1180.05;116.1;-0.37310;1.00000
1180.95;116.19;-0.37279;1.00000
1181.85;116.28;-0.37243;1.00000
1182.76;116.37;-0.37199;1.00000
1183.66;116.46;-0.37161;1.00000
1184.56;116.55;-0.37128;1.00000
1185.45;116.64;-0.37079;1.00000
1186.35;116.73;-0.37045;1.00000
1187.26;116.82;-0.37012;1.00000
1188.16;116.91;-0.36966;1.00000
1189.06;117;-0.36931;1.00000
1189.96;117.09;-0.36895;1.00000
1190.86;117.18;-0.36851;1.00000
1191.76;117.27;-0.36812;1.00000
1192.67;117.36;-0.36768;1.00000
1193.57;117.45;-0.36729;1.00000
1194.47;117.54;-0.36688;1.00000
1195.38;117.63;-0.36653;1.00000
1196.27;117.72;-0.36609;1.00000
1197.17;117.81;-0.36576;1.00000
1198.07;117.9;-0.36533;1.00000
1198.97;117.99;-0.36483;1.00000
1199.88;118.08;-0.36448;1.00000
1200.78;118.17;-0.36408;1.00000
1201.68;118.26;-0.36366;1.00000
1202.57;118.35;-0.36329;1.00000
1203.48;118.44;-0.36284;1.00000
1204.38;118.53;-0.36256;1.00000
1205.28;118.62;-0.36211;1.00000
1206.18;118.71;-0.36168;1.00000
1207.09;118.8;-0.36130;1.00000
1207.99;118.89;-0.36086;1.00000
1208.9;118.98;-0.36053;1.00000
1209.8;119.07;-0.36010;1.00000
1210.7;119.16;-0.35971;1.00000
1211.6;119.25;-0.35932;1.00000
1212.5;119.34;-0.35895;1.00000
1213.42;119.43;-0.35855;1.00000
1214.31;119.52;-0.35804;1.00000
1215.22;119.61;-0.35764;1.00000
1216.11;119.7;-0.35726;1.00000
1217.02;119.79;-0.35684;1.00000
1217.91;119.88;-0.35642;1.00000
1218.82;119.97;-0.35595;1.00000
1219.73;120.06;-0.35553;1.00000
1220.62;120.15;-0.35514;1.00000
1221.53;120.24;-0.35471;1.00000
1222.44;120.33;-0.35433;1.00000
1223.33;120.42;-0.35390;1.00000
1224.23;120.51;-0.35355;1.00000
1225.14;120.6;-0.35318;1.00000
1226.04;120.69;-0.35270;1.00000
1226.95;120.78;-0.35239;1.00000
1227.85;120.87;-0.35198;1.00000
1228.75;120.96;-0.35160;1.00000
1229.65;121.05;-0.35114;1.00000
1230.55;121.14;-0.35061;1.00000
1231.46;121.23;-0.35020;1.00000
1232.36;121.32;-0.34981;1.00000
1233.26;121.41;-0.34940;1.00000
1234.17;121.5;-0.34903;1.00000
1235.06;121.59;-0.34857;1.00000
1235.97;121.68;-0.34810;1.00000
1236.86;121.77;-0.34773;1.00000
1237.76;121.86;-0.34731;1.00000
1238.67;121.95;-0.34670;1.00000
1239.56;122.04;-0.34628;1.00000
1240.47;122.13;-0.34574;1.00000
1241.36;122.22;-0.34526;1.00000
1242.26;122.31;-0.34475;1.00000
1243.16;122.4;-0.34423;1.00000
1244.06;122.49;-0.34376;1.00000
1244.97;122.58;-0.34329;1.00000
1245.86;122.67;-0.34281;1.00000
1246.76;122.76;-0.34229;1.00000
1247.66;122.85;-0.34185;1.00000
1248.56;122.94;-0.34145;1.00000
1249.46;123.03;-0.34099;1.00000
1250.36;123.12;-0.34057;1.00000
1251.27;123.21;-0.34014;1.00000
1252.16;123.3;-0.33973;1.00000
1253.06;123.39;-0.33933;1.00000
1253.97;123.48;-0.33888;1.00000
1254.86;123.57;-0.33846;1.00000
1255.77;123.66;-0.33801;1.00000
1256.67;123.75;-0.33761;1.00000
1257.57;123.84;-0.33710;1.00000
1258.48;123.93;-0.33668;1.00000
1259.38;124.02;-0.33627;1.00000
1260.28;124.11;-0.33579;1.00000
1261.18;124.2;-0.33547;1.00000
1262.08;124.29;-0.33503;1.00000
1262.98;124.38;-0.33467;1.00000
1263.89;124.47;-0.33415;1.00000
1264.8;124.56;-0.33379;1.00000
1265.7;124.65;-0.33335;1.00000
1266.6;124.74;-0.33294;1.00000
1267.5;124.83;-0.33249;1.00000
1268.4;124.92;-0.33196;1.00000
1269.32;125.01;-0.33161;1.00000
1270.21;125.1;-0.33116;1.00000
1271.11;125.19;-0.33071;1.00000
1272.02;125.28;-0.33023;1.00000
1272.91;125.37;-0.32981;1.00000
1273.82;125.46;-0.32930;1.00000
1274.71;125.55;-0.32890;1.00000
1275.62;125.64;-0.32839;1.00000
1276.52;125.73;-0.32805;1.00000
1277.42;125.82;-0.32758;1.00000
1278.32;125.91;-0.32702;1.00000
1279.22;126;-0.32651;1.00000
1280.11;126.09;-0.32610;1.00000
1281.01;126.18;-0.32556;1.00000
1281.91;126.27;-0.32507;1.00000
1282.82;126.36;-0.32462;1.00000
1283.72;126.45;-0.32421;1.00000
1284.63;126.54;-0.32375;1.00000
1285.53;126.63;-0.32328;1.00000
1286.43;126.72;-0.32284;1.00000
1287.33;126.81;-0.32243;1.00000
1288.24;126.9;-0.32201;1.00000
1289.14;126.99;-0.32152;1.00000
1290.04;127.08;-0.32117;1.00000
1290.94;127.17;-0.32075;1.00000
1291.83;127.26;-0.32037;1.00000
1292.74;127.35;-0.31995;1.00000
1293.64;127.44;-0.31949;1.00000
1294.53;127.53;-0.31908;1.00000
1295.44;127.62;-0.31858;1.00000
1296.34;127.71;-0.31804;1.00000
1297.25;127.8;-0.31757;1.00000
1298.14;127.89;-0.31712;1.00000
1299.04;127.98;-0.31662;1.00000
1299.23;128;-0.31651;1.00000