File: charts/20230801/DTA/SATURADAS/Cs-ZCFA.txt
#FILE:                       ;Dta_Danilo_ZeoACs 1.ngb-dd9
#FORMAT:                     ;NETZSCH5
#IDENTITY:                   ;Danilo
#DECIMAL:                    ;POINT
#SEPARATOR:                  ;SEMICOLON
#MTYPE:                      ;DTA
#INSTRUMENT:                 ;NETZSCH DSC 404F3
#PROJECT:                    ;Danilo
#DATE/TIME:                  ;17/05/2022 17:07:11
#CORR. FILE:                 ;DTA Danilo Branco 04-07-22.ngb-bd9
#LABORATORY:                 ;DSC/DTA
#OPERATOR:                   ;Eguiberto
#REMARK:                     ;Danilo
#SAMPLE:                     ;ZeoACs 1
#SAMPLE MASS /mg:            ;145.9
#MATERIAL:                   ;Vidro + Zeolita
#REFERENCE:                  ;Empty
#REFERENCE MASS /mg:         ;0
#TYPE OF CRUCIBLE:           ;DTA/TG crucible Al2O3
#SAMPLE CRUCIBLE MASS /mg:   ;1352.0
#REFERENCE CRUCIBLE MASS /mg:;1342.9
#CORR. CODE:                 ;020
#EXO:                        ;-1
#RANGE:                      ;20/10.0(K/min)/1300
#SEGMENT:                    ;S1/1

##Temp./øC;Time/min;DTA/(uV/mg);Sensit./(uV/mW)
  21.98200;0.0000e+000; 4.5233e-003;1.00000
  22.00800;    0.11000; 4.3925e-003;1.00000
  22.01600;    0.22000; 4.2304e-003;1.00000
  22.00200;    0.33000; 4.1206e-003;1.00000
  22.05000;    0.44000; 4.0265e-003;1.00000
  22.05500;    0.55000; 3.8853e-003;1.00000
  22.11500;    0.66000; 3.8853e-003;1.00000
  22.18200;    0.77000; 3.8435e-003;1.00000
  22.27300;    0.88000; 3.8853e-003;1.00000
  22.37500;    0.99000; 3.8748e-003;1.00000
  22.50000;    1.10000; 4.0788e-003;1.00000
  22.63700;    1.21000; 4.1729e-003;1.00000
  22.79300;    1.32000; 4.3664e-003;1.00000
  22.97700;    1.43000; 4.5808e-003;1.00000
  23.16800;    1.54000; 4.9573e-003;1.00000
  23.43700;    1.65000; 5.2606e-003;1.00000
  23.62900;    1.76000; 5.6057e-003;1.00000
  23.92300;    1.87000; 6.0240e-003;1.00000
  24.19900;    1.98000; 6.4842e-003;1.00000
  24.48100;    2.09000; 7.0071e-003;1.00000
  24.79600;    2.20000; 7.5091e-003;1.00000
  25.11800;    2.31000; 8.0111e-003;1.00000
  25.47400;    2.42000; 8.5550e-003;1.00000
  25.82500;    2.53000; 9.1668e-003;1.00000
  26.22100;    2.64000; 9.7002e-003;1.00000
  26.63000;    2.75000; 1.0181e-002;1.00000
  27.05800;    2.86000; 1.0678e-002;1.00000
  27.52100;    2.97000; 1.1201e-002;1.00000
  27.97100;    3.08000; 1.1781e-002;1.00000
  28.46600;    3.19000; 1.2268e-002;1.00000
  28.97100;    3.30000; 1.2717e-002;1.00000
  29.54000;    3.41000; 1.3235e-002;1.00000
  30.09800;    3.52000; 1.3622e-002;1.00000
  30.71200;    3.63000; 1.4082e-002;1.00000
  31.31300;    3.74000; 1.4490e-002;1.00000
  31.96600;    3.85000; 1.4893e-002;1.00000
  32.65000;    3.96000; 1.5306e-002;1.00000
  33.33800;    4.07000; 1.5625e-002;1.00000
  34.06400;    4.18000; 1.6080e-002;1.00000
  34.82000;    4.29000; 1.6315e-002;1.00000
  35.61700;    4.40000; 1.6707e-002;1.00000
  36.41500;    4.51000; 1.7105e-002;1.00000
  37.26100;    4.62000; 1.7554e-002;1.00000
  38.11100;    4.73000; 1.7894e-002;1.00000
  39.00300;    4.84000; 1.8271e-002;1.00000
  39.90700;    4.95000; 1.8710e-002;1.00000
  40.84700;    5.06000; 1.9107e-002;1.00000
  41.82200;    5.17000; 1.9589e-002;1.00000
  42.79300;    5.28000; 2.0007e-002;1.00000
  43.82400;    5.39000; 2.0373e-002;1.00000
  44.85000;    5.50000; 2.0739e-002;1.00000
  45.92700;    5.61000; 2.1136e-002;1.00000
  46.99200;    5.72000; 2.1550e-002;1.00000
  48.11500;    5.83000; 2.1978e-002;1.00000
  49.22100;    5.94000; 2.2486e-002;1.00000
  50.39600;    6.05000; 2.3061e-002;1.00000
  51.56300;    6.16000; 2.3442e-002;1.00000
  52.75400;    6.27000; 2.3918e-002;1.00000
  53.98600;    6.38000; 2.4473e-002;1.00000
  55.24800;    6.49000; 2.4975e-002;1.00000
  56.49000;    6.60000; 2.5477e-002;1.00000
  57.79300;    6.71000; 2.6052e-002;1.00000
  59.09700;    6.82000; 2.6643e-002;1.00000
  60.41100;    6.93000; 2.7213e-002;1.00000
  61.75900;    7.04000; 2.7830e-002;1.00000
  63.12000;    7.15000; 2.8520e-002;1.00000
  64.49400;    7.26000; 2.9216e-002;1.00000
  65.88800;    7.37000; 3.0042e-002;1.00000
  67.29500;    7.48000; 3.0936e-002;1.00000
  68.72300;    7.59000; 3.1762e-002;1.00000
  70.14700;    7.70000; 3.2740e-002;1.00000
  71.61500;    7.81000; 3.3828e-002;1.00000
  73.08700;    7.92000; 3.4968e-002;1.00000
  74.55100;    8.03000; 3.6129e-002;1.00000
  76.06000;    8.14000; 3.7336e-002;1.00000
  77.54100;    8.25000; 3.8649e-002;1.00000
  79.05300;    8.36000; 4.0014e-002;1.00000
  80.57100;    8.47000; 4.1420e-002;1.00000
  82.09500;    8.58000; 4.2853e-002;1.00000
  83.64000;    8.69000; 4.4338e-002;1.00000
  85.19300;    8.80000; 4.5855e-002;1.00000
  86.76300;    8.91000; 4.7371e-002;1.00000
  88.34000;    9.02000; 4.8914e-002;1.00000
  89.89300;    9.13000; 5.0524e-002;1.00000
  91.50900;    9.24000; 5.2130e-002;1.00000
  93.07600;    9.35000; 5.3777e-002;1.00000
  94.67400;    9.46000; 5.5346e-002;1.00000
  96.29800;    9.57000; 5.6956e-002;1.00000
  97.89200;    9.68000; 5.8609e-002;1.00000
  99.48300;    9.79000; 6.0225e-002;1.00000
 101.089;    9.90000; 6.1814e-002;1.00000
 102.701;   10.01000; 6.3373e-002;1.00000
 104.314;   10.12000; 6.4785e-002;1.00000
 105.93;   10.23000; 6.6223e-002;1.00000
 107.536;   10.34000; 6.7509e-002;1.00000
 109.143;   10.45000; 6.8696e-002;1.00000
 110.746;   10.56000; 6.9951e-002;1.00000
 112.347;   10.67000; 7.1258e-002;1.00000
 113.943;   10.78000; 7.2424e-002;1.00000
 115.544;   10.89000; 7.3507e-002;1.00000
 117.146;   11.00000; 7.4108e-002;1.00000
 118.735;   11.11000; 7.4992e-002;1.00000
 120.33;   11.22000; 7.5829e-002;1.00000
 121.9;   11.33000; 7.6895e-002;1.00000
 123.479;   11.44000; 7.7695e-002;1.00000
 125.075;   11.55000; 7.8469e-002;1.00000
 126.648;   11.66000; 7.9123e-002;1.00000
 128.225;   11.77000; 7.9625e-002;1.00000
 129.79;   11.88000; 8.0158e-002;1.00000
 131.343;   11.99000; 8.0556e-002;1.00000
 132.897;   12.10000; 8.0922e-002;1.00000
 134.461;   12.21000; 8.1225e-002;1.00000
 135.999;   12.32000; 8.1450e-002;1.00000
 137.542;   12.43000; 8.1434e-002;1.00000
 139.083;   12.54000; 8.1424e-002;1.00000
 140.614;   12.65000; 8.1570e-002;1.00000
 142.136;   12.76000; 8.1711e-002;1.00000
 143.655;   12.87000; 8.1785e-002;1.00000
 145.171;   12.98000; 8.1837e-002;1.00000
 146.653;   13.09000; 8.1842e-002;1.00000
 148.169;   13.20000; 8.1816e-002;1.00000
 149.64;   13.31000; 8.1649e-002;1.00000
 151.114;   13.42000; 8.1565e-002;1.00000
 152.586;   13.53000; 8.1398e-002;1.00000
 154.038;   13.64000; 8.1188e-002;1.00000
 155.497;   13.75000; 8.0974e-002;1.00000
 156.929;   13.86000; 8.0749e-002;1.00000
 158.352;   13.97000; 8.0456e-002;1.00000
 159.786;   14.08000; 8.0195e-002;1.00000
 161.186;   14.19000; 7.9939e-002;1.00000
 162.613;   14.30000; 7.9604e-002;1.00000
 163.987;   14.41000; 7.9364e-002;1.00000
 165.363;   14.52000; 7.8799e-002;1.00000
 166.739;   14.63000; 7.8260e-002;1.00000
 168.114;   14.74000; 7.8093e-002;1.00000
 169.463;   14.85000; 7.8109e-002;1.00000
 170.808;   14.96000; 7.8129e-002;1.00000
 172.152;   15.07000; 7.8061e-002;1.00000
 173.484;   15.18000; 7.7868e-002;1.00000
 174.797;   15.29000; 7.7847e-002;1.00000
 176.105;   15.40000; 7.7722e-002;1.00000
 177.412;   15.51000; 7.7533e-002;1.00000
 178.707;   15.62000; 7.7183e-002;1.00000
 179.984;   15.73000; 7.6869e-002;1.00000
 181.26;   15.84000; 7.6341e-002;1.00000
 182.538;   15.95000; 7.5996e-002;1.00000
 183.805;   16.06000; 7.5823e-002;1.00000
 185.054;   16.17000; 7.5771e-002;1.00000
 186.294;   16.28000; 7.5708e-002;1.00000
 187.548;   16.39000; 7.5478e-002;1.00000
 188.776;   16.50000; 7.5060e-002;1.00000
 190.003;   16.61000; 7.4610e-002;1.00000
 191.216;   16.72000; 7.3983e-002;1.00000
 192.41;   16.83000; 7.3287e-002;1.00000
 193.619;   16.94000; 7.2388e-002;1.00000
 194.817;   17.05000; 7.1384e-002;1.00000
 196.006;   17.16000; 7.0249e-002;1.00000
 197.18;   17.27000; 6.8989e-002;1.00000
 198.356;   17.38000; 6.7661e-002;1.00000
 199.517;   17.49000; 6.6165e-002;1.00000
 200.686;   17.60000; 6.4518e-002;1.00000
 201.841;   17.71000; 6.2782e-002;1.00000
 202.989;   17.82000; 6.0931e-002;1.00000
 204.107;   17.93000; 5.8781e-002;1.00000
 205.256;   18.04000; 5.6601e-002;1.00000
 206.4;   18.15000; 5.4263e-002;1.00000
 207.526;   18.26000; 5.1816e-002;1.00000
 208.644;   18.37000; 4.9222e-002;1.00000
 209.749;   18.48000; 4.6613e-002;1.00000
 210.878;   18.59000; 4.3768e-002;1.00000
 211.966;   18.70000; 4.0861e-002;1.00000
 213.077;   18.81000; 3.7818e-002;1.00000
 214.165;   18.92000; 3.4717e-002;1.00000
 215.249;   19.03000; 3.1401e-002;1.00000
 216.342;   19.14000; 2.7987e-002;1.00000
 217.436;   19.25000; 2.4556e-002;1.00000
 218.516;   19.36000; 2.0927e-002;1.00000
 219.599;   19.47000; 1.7209e-002;1.00000
 220.658;   19.58000; 1.3413e-002;1.00000
 221.742;   19.69000; 9.3812e-003;1.00000
 222.804;   19.80000; 5.4331e-003;1.00000
 223.874;   19.91000; 1.3021e-003;1.00000
 224.94;   20.02000;-2.9022e-003;1.00000
 225.992;   20.13000;-7.1535e-003;1.00000
 227.05;   20.24000;-1.1394e-002;1.00000
 228.115;   20.35000;-1.5787e-002;1.00000
 229.165;   20.46000;-2.0111e-002;1.00000
 230.224;   20.57000;-2.4535e-002;1.00000
 231.259;   20.68000;-2.8975e-002;1.00000
 232.31;   20.79000;-3.3441e-002;1.00000
 233.361;   20.90000;-3.7828e-002;1.00000
 234.404;   21.01000;-4.2205e-002;1.00000
 235.435;   21.12000;-4.6519e-002;1.00000
 236.499;   21.23000;-5.0896e-002;1.00000
 237.531;   21.34000;-5.5152e-002;1.00000
 238.571;   21.45000;-5.9414e-002;1.00000
 239.619;   21.56000;-6.3655e-002;1.00000
 240.656;   21.67000;-6.7823e-002;1.00000
 241.677;   21.78000;-7.1975e-002;1.00000
 242.724;   21.89000;-7.6158e-002;1.00000
 243.76;   22.00000;-8.0289e-002;1.00000
 244.799;   22.11000;-8.4174e-002;1.00000
 245.827;   22.22000;-8.7898e-002;1.00000
 246.864;   22.33000;-9.1542e-002;1.00000
 247.903;   22.44000;-9.5082e-002;1.00000
 248.933;   22.55000;-9.8565e-002;1.00000
 249.966;   22.66000;    -0.10190;1.00000
 251.001;   22.77000;    -0.10513;1.00000
 252.033;   22.88000;    -0.10834;1.00000
 253.066;   22.99000;    -0.11144;1.00000
 254.111;   23.10000;    -0.11449;1.00000
 255.136;   23.21000;    -0.11741;1.00000
 256.171;   23.32000;    -0.12026;1.00000
 257.208;   23.43000;    -0.12312;1.00000
 258.24;   23.54000;    -0.12586;1.00000
 259.278;   23.65000;    -0.12862;1.00000
 260.309;   23.76000;    -0.13129;1.00000
 261.34;   23.87000;    -0.13394;1.00000
 262.386;   23.98000;    -0.13646;1.00000
 263.415;   24.09000;    -0.13901;1.00000
 264.461;   24.20000;    -0.14142;1.00000
 265.489;   24.31000;    -0.14377;1.00000
 266.512;   24.42000;    -0.14615;1.00000
 267.558;   24.53000;    -0.14850;1.00000
 268.594;   24.64000;    -0.15077;1.00000
 269.641;   24.75000;    -0.15305;1.00000
 270.671;   24.86000;    -0.15525;1.00000
 271.71;   24.97000;    -0.15748;1.00000
 272.744;   25.08000;    -0.15957;1.00000
 273.793;   25.19000;    -0.16166;1.00000
 274.836;   25.30000;    -0.16379;1.00000
 275.866;   25.41000;    -0.16581;1.00000
 276.904;   25.52000;    -0.16783;1.00000
 277.945;   25.63000;    -0.16977;1.00000
 278.995;   25.74000;    -0.17177;1.00000
 280.045;   25.85000;    -0.17372;1.00000
 281.075;   25.96000;    -0.17551;1.00000
 282.126;   26.07000;    -0.17751;1.00000
 283.182;   26.18000;    -0.17935;1.00000
 284.22;   26.29000;    -0.18110;1.00000
 285.268;   26.40000;    -0.18291;1.00000
 286.312;   26.51000;    -0.18472;1.00000
 287.364;   26.62000;    -0.18646;1.00000
 288.415;   26.73000;    -0.18820;1.00000
 289.469;   26.84000;    -0.18998;1.00000
 290.532;   26.95000;    -0.19160;1.00000
 291.575;   27.06000;    -0.19329;1.00000
 292.62;   27.17000;    -0.19489;1.00000
 293.689;   27.28000;    -0.19652;1.00000
 294.74;   27.39000;    -0.19816;1.00000
 295.8;   27.50000;    -0.19970;1.00000
 296.855;   27.61000;    -0.20128;1.00000
 297.909;   27.72000;    -0.20280;1.00000
 298.975;   27.83000;    -0.20432;1.00000
 300.034;   27.94000;    -0.20583;1.00000
 301.094;   28.05000;    -0.20731;1.00000
 302.16;   28.16000;    -0.20875;1.00000
 303.23;   28.27000;    -0.21033;1.00000
 304.28;   28.38000;    -0.21162;1.00000
 305.342;   28.49000;    -0.21311;1.00000
 306.413;   28.60000;    -0.21453;1.00000
 307.478;   28.71000;    -0.21591;1.00000
 308.541;   28.82000;    -0.21731;1.00000
 309.607;   28.93000;    -0.21870;1.00000
 310.672;   29.04000;    -0.22002;1.00000
 311.74;   29.15000;    -0.22138;1.00000
 312.814;   29.26000;    -0.22274;1.00000
 313.885;   29.37000;    -0.22403;1.00000
 314.962;   29.48000;    -0.22532;1.00000
 316.03;   29.59000;    -0.22664;1.00000
 317.111;   29.70000;    -0.22793;1.00000
 318.192;   29.81000;    -0.22916;1.00000
 319.258;   29.92000;    -0.23043;1.00000
 320.332;   30.03000;    -0.23166;1.00000
 321.407;   30.14000;    -0.23284;1.00000
 322.483;   30.25000;    -0.23416;1.00000
 323.552;   30.36000;    -0.23519;1.00000
 324.638;   30.47000;    -0.23647;1.00000
 325.714;   30.58000;    -0.23767;1.00000
 326.798;   30.69000;    -0.23880;1.00000
 327.871;   30.80000;    -0.23995;1.00000
 328.964;   30.91000;    -0.24108;1.00000
 330.04;   31.02000;    -0.24224;1.00000
 331.118;   31.13000;    -0.24337;1.00000
 332.203;   31.24000;    -0.24450;1.00000
 333.265;   31.35000;    -0.24562;1.00000
 334.362;   31.46000;    -0.24669;1.00000
 335.438;   31.57000;    -0.24787;1.00000
 336.521;   31.68000;    -0.24890;1.00000
 337.617;   31.79000;    -0.25001;1.00000
 338.688;   31.90000;    -0.25114;1.00000
 339.778;   32.01000;    -0.25219;1.00000
 340.86;   32.12000;    -0.25322;1.00000
 341.941;   32.23000;    -0.25430;1.00000
 343.013;   32.34000;    -0.25536;1.00000
 344.115;   32.45000;    -0.25639;1.00000
 345.188;   32.56000;    -0.25742;1.00000
 346.288;   32.67000;    -0.25855;1.00000
 347.375;   32.78000;    -0.25957;1.00000
 348.451;   32.89000;    -0.26061;1.00000
 349.536;   33.00000;    -0.26166;1.00000
 350.612;   33.11000;    -0.26263;1.00000
 351.71;   33.22000;    -0.26368;1.00000
 352.788;   33.33000;    -0.26471;1.00000
 353.878;   33.44000;    -0.26578;1.00000
 354.956;   33.55000;    -0.26676;1.00000
 356.048;   33.66000;    -0.26778;1.00000
 357.154;   33.77000;    -0.26878;1.00000
 358.23;   33.88000;    -0.26981;1.00000
 359.317;   33.99000;    -0.27081;1.00000
 360.399;   34.10000;    -0.27180;1.00000
 361.497;   34.21000;    -0.27287;1.00000
 362.577;   34.32000;    -0.27388;1.00000
 363.665;   34.43000;    -0.27488;1.00000
 364.761;   34.54000;    -0.27588;1.00000
 365.86;   34.65000;    -0.27677;1.00000
 366.934;   34.76000;    -0.27782;1.00000
 368.031;   34.87000;    -0.27872;1.00000
 369.11;   34.98000;    -0.27967;1.00000
 370.209;   35.09000;    -0.28070;1.00000
 371.304;   35.20000;    -0.28169;1.00000
 372.392;   35.31000;    -0.28261;1.00000
 373.481;   35.42000;    -0.28357;1.00000
 374.562;   35.53000;    -0.28454;1.00000
 375.655;   35.64000;    -0.28544;1.00000
 376.742;   35.75000;    -0.28645;1.00000
 377.84;   35.86000;    -0.28734;1.00000
 378.932;   35.97000;    -0.28826;1.00000
 380.011;   36.08000;    -0.28923;1.00000
 381.105;   36.19000;    -0.29019;1.00000
 382.195;   36.30000;    -0.29114;1.00000
 383.286;   36.41000;    -0.29197;1.00000
 384.366;   36.52000;    -0.29289;1.00000
 385.463;   36.63000;    -0.29386;1.00000
 386.56;   36.74000;    -0.29473;1.00000
 387.653;   36.85000;    -0.29564;1.00000
 388.743;   36.96000;    -0.29659;1.00000
 389.83;   37.07000;    -0.29745;1.00000
 390.923;   37.18000;    -0.29827;1.00000
 392.012;   37.29000;    -0.29916;1.00000
 393.102;   37.40000;    -0.29995;1.00000
 394.185;   37.51000;    -0.30091;1.00000
 395.293;   37.62000;    -0.30167;1.00000
 396.371;   37.73000;    -0.30256;1.00000
 397.465;   37.84000;    -0.30336;1.00000
 398.567;   37.95000;    -0.30417;1.00000
 399.653;   38.06000;    -0.30511;1.00000
 400.755;   38.17000;    -0.30594;1.00000
 401.848;   38.28000;    -0.30677;1.00000
 402.925;   38.39000;    -0.30763;1.00000
 404.018;   38.50000;    -0.30848;1.00000
 405.114;   38.61000;    -0.30935;1.00000
 406.203;   38.72000;    -0.31011;1.00000
 407.308;   38.83000;    -0.31094;1.00000
 408.386;   38.94000;    -0.31172;1.00000
 409.487;   39.05000;    -0.31254;1.00000
 410.579;   39.16000;    -0.31339;1.00000
 411.668;   39.27000;    -0.31416;1.00000
 412.767;   39.38000;    -0.31492;1.00000
 413.865;   39.49000;    -0.31582;1.00000
 414.96;   39.60000;    -0.31654;1.00000
 416.033;   39.71000;    -0.31733;1.00000
 417.128;   39.82000;    -0.31809;1.00000
 418.223;   39.93000;    -0.31895;1.00000
 419.308;   40.04000;    -0.31971;1.00000
 420.397;   40.15000;    -0.32053;1.00000
 421.496;   40.26000;    -0.32128;1.00000
 422.586;   40.37000;    -0.32208;1.00000
 423.679;   40.48000;    -0.32283;1.00000
 424.761;   40.59000;    -0.32356;1.00000
 425.867;   40.70000;    -0.32437;1.00000
 426.96;   40.81000;    -0.32506;1.00000
 428.038;   40.92000;    -0.32587;1.00000
 429.131;   41.03000;    -0.32658;1.00000
 430.228;   41.14000;    -0.32741;1.00000
 431.321;   41.25000;    -0.32810;1.00000
 432.414;   41.36000;    -0.32895;1.00000
 433.507;   41.47000;    -0.32964;1.00000
 434.603;   41.58000;    -0.33039;1.00000
 435.696;   41.69000;    -0.33109;1.00000
 436.791;   41.80000;    -0.33180;1.00000
 437.882;   41.91000;    -0.33255;1.00000
 438.974;   42.02000;    -0.33328;1.00000
 440.065;   42.13000;    -0.33404;1.00000
 441.155;   42.24000;    -0.33472;1.00000
 442.256;   42.35000;    -0.33547;1.00000
 443.334;   42.46000;    -0.33614;1.00000
 444.432;   42.57000;    -0.33691;1.00000
 445.52;   42.68000;    -0.33766;1.00000
 446.63;   42.79000;    -0.33832;1.00000
 447.717;   42.90000;    -0.33901;1.00000
 448.803;   43.01000;    -0.33973;1.00000
 449.903;   43.12000;    -0.34042;1.00000
 450.999;   43.23000;    -0.34108;1.00000
 452.09;   43.34000;    -0.34173;1.00000
 453.187;   43.45000;    -0.34235;1.00000
 454.268;   43.56000;    -0.34300;1.00000
 455.367;   43.67000;    -0.34368;1.00000
 456.455;   43.78000;    -0.34436;1.00000
 457.539;   43.89000;    -0.34500;1.00000
 458.633;   44.00000;    -0.34565;1.00000
 459.733;   44.11000;    -0.34622;1.00000
 460.82;   44.22000;    -0.34695;1.00000
 461.91;   44.33000;    -0.34752;1.00000
 463.004;   44.44000;    -0.34823;1.00000
 464.095;   44.55000;    -0.34877;1.00000
 465.183;   44.66000;    -0.34944;1.00000
 466.273;   44.77000;    -0.35002;1.00000
 467.378;   44.88000;    -0.35062;1.00000
 468.466;   44.99000;    -0.35120;1.00000
 469.558;   45.10000;    -0.35192;1.00000
 470.653;   45.21000;    -0.35251;1.00000
 471.751;   45.32000;    -0.35304;1.00000
 472.834;   45.43000;    -0.35365;1.00000
 473.929;   45.54000;    -0.35424;1.00000
 475.023;   45.65000;    -0.35482;1.00000
 476.121;   45.76000;    -0.35552;1.00000
 477.215;   45.87000;    -0.35607;1.00000
 478.316;   45.98000;    -0.35662;1.00000
 479.403;   46.09000;    -0.35720;1.00000
 480.499;   46.20000;    -0.35774;1.00000
 481.595;   46.31000;    -0.35834;1.00000
 482.68;   46.42000;    -0.35885;1.00000
 483.777;   46.53000;    -0.35937;1.00000
 484.874;   46.64000;    -0.35993;1.00000
 485.968;   46.75000;    -0.36042;1.00000
 487.058;   46.86000;    -0.36084;1.00000
 488.166;   46.97000;    -0.36132;1.00000
 489.272;   47.08000;    -0.36183;1.00000
 490.352;   47.19000;    -0.36227;1.00000
 491.45;   47.30000;    -0.36271;1.00000
 492.556;   47.41000;    -0.36320;1.00000
 493.636;   47.52000;    -0.36355;1.00000
 494.729;   47.63000;    -0.36409;1.00000
 495.83;   47.74000;    -0.36448;1.00000
 496.92;   47.85000;    -0.36494;1.00000
 498.001;   47.96000;    -0.36532;1.00000
 499.114;   48.07000;    -0.36565;1.00000
 500.205;   48.18000;    -0.36609;1.00000
 501.309;   48.29000;    -0.36648;1.00000
 502.409;   48.40000;    -0.36686;1.00000
 503.492;   48.51000;    -0.36734;1.00000
 504.578;   48.62000;    -0.36779;1.00000
 505.691;   48.73000;    -0.36809;1.00000
 506.771;   48.84000;    -0.36850;1.00000
 507.869;   48.95000;    -0.36888;1.00000
 508.961;   49.06000;    -0.36929;1.00000
 510.066;   49.17000;    -0.36967;1.00000
 511.169;   49.28000;    -0.36998;1.00000
 512.251;   49.39000;    -0.37039;1.00000
 513.344;   49.50000;    -0.37073;1.00000
 514.451;   49.61000;    -0.37108;1.00000
 515.55;   49.72000;    -0.37149;1.00000
 516.643;   49.83000;    -0.37180;1.00000
 517.735;   49.94000;    -0.37214;1.00000
 518.824;   50.05000;    -0.37255;1.00000
 519.927;   50.16000;    -0.37284;1.00000
 521.008;   50.27000;    -0.37324;1.00000
 522.108;   50.38000;    -0.37356;1.00000
 523.201;   50.49000;    -0.37388;1.00000
 524.302;   50.60000;    -0.37422;1.00000
 525.4;   50.71000;    -0.37461;1.00000
 526.483;   50.82000;    -0.37496;1.00000
 527.581;   50.93000;    -0.37535;1.00000
 528.691;   51.04000;    -0.37568;1.00000
 529.781;   51.15000;    -0.37596;1.00000
 530.869;   51.26000;    -0.37627;1.00000
 531.967;   51.37000;    -0.37660;1.00000
 533.074;   51.48000;    -0.37699;1.00000
 534.165;   51.59000;    -0.37727;1.00000
 535.261;   51.70000;    -0.37761;1.00000
 536.369;   51.81000;    -0.37797;1.00000
 537.447;   51.92000;    -0.37826;1.00000
 538.551;   52.03000;    -0.37865;1.00000
 539.656;   52.14000;    -0.37896;1.00000
 540.755;   52.25000;    -0.37922;1.00000
 541.842;   52.36000;    -0.37969;1.00000
 542.945;   52.47000;    -0.38002;1.00000
 544.042;   52.58000;    -0.38030;1.00000
 545.14;   52.69000;    -0.38061;1.00000
 546.234;   52.80000;    -0.38088;1.00000
 547.333;   52.91000;    -0.38130;1.00000
 548.437;   53.02000;    -0.38161;1.00000
 549.535;   53.13000;    -0.38193;1.00000
 550.628;   53.24000;    -0.38225;1.00000
 551.729;   53.35000;    -0.38258;1.00000
 552.83;   53.46000;    -0.38289;1.00000
 553.916;   53.57000;    -0.38325;1.00000
 555.018;   53.68000;    -0.38346;1.00000
 556.116;   53.79000;    -0.38384;1.00000
 557.206;   53.90000;    -0.38408;1.00000
 558.314;   54.01000;    -0.38439;1.00000
 559.41;   54.12000;    -0.38476;1.00000
 560.513;   54.23000;    -0.38506;1.00000
 561.595;   54.34000;    -0.38538;1.00000
 562.696;   54.45000;    -0.38564;1.00000
 563.789;   54.56000;    -0.38595;1.00000
 564.88;   54.67000;    -0.38619;1.00000
 565.985;   54.78000;    -0.38651;1.00000
 567.089;   54.89000;    -0.38671;1.00000
 568.181;   55.00000;    -0.38703;1.00000
 569.289;   55.11000;    -0.38735;1.00000
 570.374;   55.22000;    -0.38761;1.00000
 571.467;   55.33000;    -0.38793;1.00000
 572.578;   55.44000;    -0.38822;1.00000
 573.678;   55.55000;    -0.38848;1.00000
 574.767;   55.66000;    -0.38878;1.00000
 575.868;   55.77000;    -0.38902;1.00000
 576.963;   55.88000;    -0.38943;1.00000
 578.057;   55.99000;    -0.38978;1.00000
 579.148;   56.10000;    -0.39002;1.00000
 580.251;   56.21000;    -0.39038;1.00000
 581.35;   56.32000;    -0.39067;1.00000
 582.453;   56.43000;    -0.39101;1.00000
 583.566;   56.54000;    -0.39130;1.00000
 584.66;   56.65000;    -0.39156;1.00000
 585.746;   56.76000;    -0.39181;1.00000
 586.863;   56.87000;    -0.39221;1.00000
 587.959;   56.98000;    -0.39248;1.00000
 589.05;   57.09000;    -0.39266;1.00000
 590.15;   57.20000;    -0.39289;1.00000
 591.244;   57.31000;    -0.39326;1.00000
 592.338;   57.42000;    -0.39348;1.00000
 593.445;   57.53000;    -0.39377;1.00000
 594.538;   57.64000;    -0.39401;1.00000
 595.643;   57.75000;    -0.39428;1.00000
 596.737;   57.86000;    -0.39458;1.00000
 597.837;   57.97000;    -0.39478;1.00000
 598.935;   58.08000;    -0.39519;1.00000
 600.037;   58.19000;    -0.39542;1.00000
 601.134;   58.30000;    -0.39565;1.00000
 602.233;   58.41000;    -0.39600;1.00000
 603.319;   58.52000;    -0.39620;1.00000
 604.418;   58.63000;    -0.39651;1.00000
 605.527;   58.74000;    -0.39680;1.00000
 606.613;   58.85000;    -0.39712;1.00000
 607.72;   58.96000;    -0.39734;1.00000
 608.813;   59.07000;    -0.39761;1.00000
 609.91;   59.18000;    -0.39789;1.00000
 611.016;   59.29000;    -0.39821;1.00000
 612.11;   59.40000;    -0.39848;1.00000
 613.206;   59.51000;    -0.39875;1.00000
 614.302;   59.62000;    -0.39897;1.00000
 615.398;   59.73000;    -0.39926;1.00000
 616.508;   59.84000;    -0.39955;1.00000
 617.608;   59.95000;    -0.39978;1.00000
 618.69;   60.06000;    -0.40011;1.00000
 619.794;   60.17000;    -0.40042;1.00000
 620.89;   60.28000;    -0.40068;1.00000
 621.978;   60.39000;    -0.40100;1.00000
 623.088;   60.50000;    -0.40132;1.00000
 624.192;   60.61000;    -0.40168;1.00000
 625.281;   60.72000;    -0.40192;1.00000
 626.378;   60.83000;    -0.40225;1.00000
 627.478;   60.94000;    -0.40253;1.00000
 628.578;   61.05000;    -0.40287;1.00000
 629.672;   61.16000;    -0.40317;1.00000
 630.771;   61.27000;    -0.40337;1.00000
 631.87;   61.38000;    -0.40365;1.00000
 632.975;   61.49000;    -0.40395;1.00000
 634.065;   61.60000;    -0.40423;1.00000
 635.16;   61.71000;    -0.40453;1.00000
 636.264;   61.82000;    -0.40483;1.00000
 637.363;   61.93000;    -0.40514;1.00000
 638.462;   62.04000;    -0.40542;1.00000
 639.552;   62.15000;    -0.40579;1.00000
 640.655;   62.26000;    -0.40605;1.00000
 641.759;   62.37000;    -0.40647;1.00000
 642.859;   62.48000;    -0.40675;1.00000
 643.969;   62.59000;    -0.40708;1.00000
 645.053;   62.70000;    -0.40732;1.00000
 646.153;   62.81000;    -0.40772;1.00000
 647.26;   62.92000;    -0.40806;1.00000
 648.352;   63.03000;    -0.40843;1.00000
 649.447;   63.14000;    -0.40873;1.00000
 650.555;   63.25000;    -0.40907;1.00000
 651.655;   63.36000;    -0.40941;1.00000
 652.757;   63.47000;    -0.40975;1.00000
 653.852;   63.58000;    -0.41009;1.00000
 654.956;   63.69000;    -0.41042;1.00000
 656.056;   63.80000;    -0.41087;1.00000
 657.154;   63.91000;    -0.41124;1.00000
 658.266;   64.02000;    -0.41161;1.00000
 659.363;   64.13000;    -0.41191;1.00000
 660.456;   64.24000;    -0.41229;1.00000
 661.549;   64.35000;    -0.41263;1.00000
 662.66;   64.46000;    -0.41297;1.00000
 663.761;   64.57000;    -0.41328;1.00000
 664.86;   64.68000;    -0.41360;1.00000
 665.959;   64.79000;    -0.41396;1.00000
 667.06;   64.90000;    -0.41429;1.00000
 668.164;   65.01000;    -0.41463;1.00000
 669.266;   65.12000;    -0.41488;1.00000
 670.37;   65.23000;    -0.41525;1.00000
 671.472;   65.34000;    -0.41554;1.00000
 672.564;   65.45000;    -0.41584;1.00000
 673.669;   65.56000;    -0.41614;1.00000
 674.764;   65.67000;    -0.41648;1.00000
 675.865;   65.78000;    -0.41683;1.00000
 676.973;   65.89000;    -0.41712;1.00000
 678.074;   66.00000;    -0.41753;1.00000
 679.171;   66.11000;    -0.41785;1.00000
 680.271;   66.22000;    -0.41831;1.00000
 681.374;   66.33000;    -0.41870;1.00000
 682.484;   66.44000;    -0.41893;1.00000
 683.577;   66.55000;    -0.41928;1.00000
 684.673;   66.66000;    -0.41959;1.00000
 685.787;   66.77000;    -0.41995;1.00000
 686.879;   66.88000;    -0.42030;1.00000
 687.989;   66.99000;    -0.42051;1.00000
 689.09;   67.10000;    -0.42073;1.00000
 690.189;   67.21000;    -0.42099;1.00000
 691.285;   67.32000;    -0.42119;1.00000
 692.388;   67.43000;    -0.42145;1.00000
 693.489;   67.54000;    -0.42175;1.00000
 694.574;   67.65000;    -0.42192;1.00000
 695.692;   67.76000;    -0.42219;1.00000
 696.789;   67.87000;    -0.42245;1.00000
 697.885;   67.98000;    -0.42263;1.00000
 698.995;   68.09000;    -0.42292;1.00000
 700.09;   68.20000;    -0.42314;1.00000
 701.181;   68.31000;    -0.42343;1.00000
 702.293;   68.42000;    -0.42373;1.00000
 703.384;   68.53000;    -0.42402;1.00000
 704.495;   68.64000;    -0.42429;1.00000
 705.591;   68.75000;    -0.42464;1.00000
 706.692;   68.86000;    -0.42495;1.00000
 707.793;   68.97000;    -0.42514;1.00000
 708.889;   69.08000;    -0.42544;1.00000
 709.992;   69.19000;    -0.42559;1.00000
 711.088;   69.30000;    -0.42588;1.00000
 712.184;   69.41000;    -0.42623;1.00000
 713.288;   69.52000;    -0.42658;1.00000
 714.377;   69.63000;    -0.42695;1.00000
 715.482;   69.74000;    -0.42731;1.00000
 716.594;   69.85000;    -0.42779;1.00000
 717.686;   69.96000;    -0.42822;1.00000
 718.774;   70.07000;    -0.42881;1.00000
 719.881;   70.18000;    -0.42941;1.00000
 720.983;   70.29000;    -0.43015;1.00000
 722.094;   70.40000;    -0.43092;1.00000
 723.185;   70.51000;    -0.43194;1.00000
 724.288;   70.62000;    -0.43285;1.00000
 725.397;   70.73000;    -0.43387;1.00000
 726.481;   70.84000;    -0.43488;1.00000
 727.582;   70.95000;    -0.43583;1.00000
 728.685;   71.06000;    -0.43678;1.00000
 729.791;   71.17000;    -0.43772;1.00000
 730.89;   71.28000;    -0.43862;1.00000
 732;   71.39000;    -0.43956;1.00000
 733.095;   71.50000;    -0.44031;1.00000
 734.191;   71.61000;    -0.44118;1.00000
 735.297;   71.72000;    -0.44195;1.00000
 736.404;   71.83000;    -0.44280;1.00000
 737.511;   71.94000;    -0.44351;1.00000
 738.608;   72.05000;    -0.44439;1.00000
 739.712;   72.16000;    -0.44507;1.00000
 740.819;   72.27000;    -0.44576;1.00000
 741.911;   72.38000;    -0.44668;1.00000
 743.01;   72.49000;    -0.44735;1.00000
 744.118;   72.60000;    -0.44816;1.00000
 745.222;   72.71000;    -0.44897;1.00000
 746.327;   72.82000;    -0.44967;1.00000
 747.424;   72.93000;    -0.45041;1.00000
 748.523;   73.04000;    -0.45115;1.00000
 749.635;   73.15000;    -0.45195;1.00000
 750.732;   73.26000;    -0.45263;1.00000
 751.823;   73.37000;    -0.45333;1.00000
 752.926;   73.48000;    -0.45396;1.00000
 754.028;   73.59000;    -0.45470;1.00000
 755.123;   73.70000;    -0.45543;1.00000
 756.232;   73.81000;    -0.45607;1.00000
 757.331;   73.92000;    -0.45680;1.00000
 758.439;   74.03000;    -0.45754;1.00000
 759.533;   74.14000;    -0.45825;1.00000
 760.628;   74.25000;    -0.45892;1.00000
 761.726;   74.36000;    -0.45964;1.00000
 762.829;   74.47000;    -0.46046;1.00000
 763.927;   74.58000;    -0.46101;1.00000
 765.018;   74.69000;    -0.46185;1.00000
 766.133;   74.80000;    -0.46253;1.00000
 767.233;   74.91000;    -0.46323;1.00000
 768.33;   75.02000;    -0.46397;1.00000
 769.435;   75.13000;    -0.46466;1.00000
 770.535;   75.24000;    -0.46539;1.00000
 771.635;   75.35000;    -0.46619;1.00000
 772.739;   75.46000;    -0.46690;1.00000
 773.833;   75.57000;    -0.46764;1.00000
 774.936;   75.68000;    -0.46837;1.00000
 776.037;   75.79000;    -0.46902;1.00000
 777.146;   75.90000;    -0.46976;1.00000
 778.243;   76.01000;    -0.47048;1.00000
 779.343;   76.12000;    -0.47116;1.00000
 780.444;   76.23000;    -0.47189;1.00000
 781.541;   76.34000;    -0.47266;1.00000
 782.643;   76.45000;    -0.47335;1.00000
 783.744;   76.56000;    -0.47406;1.00000
 784.842;   76.67000;    -0.47470;1.00000
 785.95;   76.78000;    -0.47544;1.00000
 787.038;   76.89000;    -0.47612;1.00000
 788.15;   77.00000;    -0.47684;1.00000
 789.263;   77.11000;    -0.47751;1.00000
 790.351;   77.22000;    -0.47818;1.00000
 791.459;   77.33000;    -0.47879;1.00000
 792.557;   77.44000;    -0.47947;1.00000
 793.66;   77.55000;    -0.48016;1.00000
 794.757;   77.66000;    -0.48078;1.00000
 795.871;   77.77000;    -0.48145;1.00000
 796.958;   77.88000;    -0.48198;1.00000
 798.068;   77.99000;    -0.48263;1.00000
 799.175;   78.10000;    -0.48321;1.00000
 800.272;   78.21000;    -0.48381;1.00000
 801.381;   78.32000;    -0.48442;1.00000
 802.484;   78.43000;    -0.48484;1.00000
 803.584;   78.54000;    -0.48547;1.00000
 804.677;   78.65000;    -0.48593;1.00000
 805.78;   78.76000;    -0.48641;1.00000
 806.875;   78.87000;    -0.48694;1.00000
 807.982;   78.98000;    -0.48755;1.00000
 809.089;   79.09000;    -0.48801;1.00000
 810.176;   79.20000;    -0.48840;1.00000
 811.274;   79.31000;    -0.48890;1.00000
 812.38;   79.42000;    -0.48940;1.00000
 813.489;   79.53000;    -0.48982;1.00000
 814.596;   79.64000;    -0.49028;1.00000
 815.685;   79.75000;    -0.49070;1.00000
 816.796;   79.86000;    -0.49112;1.00000
 817.895;   79.97000;    -0.49154;1.00000
 818.997;   80.08000;    -0.49185;1.00000
 820.093;   80.19000;    -0.49221;1.00000
 821.194;   80.30000;    -0.49260;1.00000
 822.295;   80.41000;    -0.49292;1.00000
 823.393;   80.52000;    -0.49324;1.00000
 824.505;   80.63000;    -0.49358;1.00000
 825.599;   80.74000;    -0.49390;1.00000
 826.702;   80.85000;    -0.49414;1.00000
 827.799;   80.96000;    -0.49443;1.00000
 828.919;   81.07000;    -0.49463;1.00000
 829.999;   81.18000;    -0.49491;1.00000
 831.105;   81.29000;    -0.49525;1.00000
 832.21;   81.40000;    -0.49538;1.00000
 833.311;   81.51000;    -0.49558;1.00000
 834.408;   81.62000;    -0.49576;1.00000
 835.505;   81.73000;    -0.49591;1.00000
 836.608;   81.84000;    -0.49604;1.00000
 837.714;   81.95000;    -0.49618;1.00000
 838.814;   82.06000;    -0.49629;1.00000
 839.917;   82.17000;    -0.49631;1.00000
 841.017;   82.28000;    -0.49638;1.00000
 842.121;   82.39000;    -0.49643;1.00000
 843.224;   82.50000;    -0.49645;1.00000
 844.326;   82.61000;    -0.49652;1.00000
 845.421;   82.72000;    -0.49653;1.00000
 846.523;   82.83000;    -0.49659;1.00000
 847.632;   82.94000;    -0.49655;1.00000
 848.724;   83.05000;    -0.49644;1.00000
 849.834;   83.16000;    -0.49652;1.00000
 850.92;   83.27000;    -0.49641;1.00000
 852.035;   83.38000;    -0.49636;1.00000
 853.135;   83.49000;    -0.49628;1.00000
 854.24;   83.60000;    -0.49620;1.00000
 855.333;   83.71000;    -0.49605;1.00000
 856.441;   83.82000;    -0.49597;1.00000
 857.549;   83.93000;    -0.49584;1.00000
 858.638;   84.04000;    -0.49565;1.00000
 859.744;   84.15000;    -0.49557;1.00000
 860.848;   84.26000;    -0.49546;1.00000
 861.948;   84.37000;    -0.49525;1.00000
 863.062;   84.48000;    -0.49512;1.00000
 864.148;   84.59000;    -0.49495;1.00000
 865.252;   84.70000;    -0.49477;1.00000
 866.352;   84.81000;    -0.49446;1.00000
 867.458;   84.92000;    -0.49429;1.00000
 868.556;   85.03000;    -0.49394;1.00000
 869.663;   85.14000;    -0.49372;1.00000
 870.752;   85.25000;    -0.49346;1.00000
 871.861;   85.36000;    -0.49315;1.00000
 872.967;   85.47000;    -0.49287;1.00000
 874.071;   85.58000;    -0.49248;1.00000
 875.176;   85.69000;    -0.49215;1.00000
 876.263;   85.80000;    -0.49180;1.00000
 877.376;   85.91000;    -0.49145;1.00000
 878.466;   86.02000;    -0.49100;1.00000
 879.569;   86.13000;    -0.49052;1.00000
 880.673;   86.24000;    -0.49014;1.00000
 881.771;   86.35000;    -0.48967;1.00000
 882.877;   86.46000;    -0.48926;1.00000
 883.977;   86.57000;    -0.48875;1.00000
 885.08;   86.68000;    -0.48820;1.00000
 886.178;   86.79000;    -0.48769;1.00000
 887.287;   86.90000;    -0.48710;1.00000
 888.382;   87.01000;    -0.48653;1.00000
 889.486;   87.12000;    -0.48603;1.00000
 890.577;   87.23000;    -0.48549;1.00000
 891.695;   87.34000;    -0.48484;1.00000
 892.8;   87.45000;    -0.48427;1.00000
 893.892;   87.56000;    -0.48373;1.00000
 895.01;   87.67000;    -0.48316;1.00000
 896.106;   87.78000;    -0.48258;1.00000
 897.201;   87.89000;    -0.48193;1.00000
 898.299;   88.00000;    -0.48136;1.00000
 899.417;   88.11000;    -0.48065;1.00000
 900.518;   88.22000;    -0.48007;1.00000
 901.604;   88.33000;    -0.47938;1.00000
 902.721;   88.44000;    -0.47883;1.00000
 903.815;   88.55000;    -0.47813;1.00000
 904.922;   88.66000;    -0.47756;1.00000
 906.028;   88.77000;    -0.47692;1.00000
 907.126;   88.88000;    -0.47630;1.00000
 908.221;   88.99000;    -0.47567;1.00000
 909.335;   89.10000;    -0.47512;1.00000
 910.435;   89.21000;    -0.47448;1.00000
 911.531;   89.32000;    -0.47386;1.00000
 912.63;   89.43000;    -0.47329;1.00000
 913.731;   89.54000;    -0.47277;1.00000
 914.841;   89.65000;    -0.47229;1.00000
 915.944;   89.76000;    -0.47175;1.00000
 917.048;   89.87000;    -0.47129;1.00000
 918.148;   89.98000;    -0.47084;1.00000
 919.25;   90.09000;    -0.47042;1.00000
 920.351;   90.20000;    -0.46999;1.00000
 921.454;   90.31000;    -0.46963;1.00000
 922.554;   90.42000;    -0.46933;1.00000
 923.649;   90.53000;    -0.46909;1.00000
 924.755;   90.64000;    -0.46883;1.00000
 925.863;   90.75000;    -0.46860;1.00000
 926.961;   90.86000;    -0.46845;1.00000
 928.071;   90.97000;    -0.46842;1.00000
 929.173;   91.08000;    -0.46833;1.00000
 930.284;   91.19000;    -0.46820;1.00000
 931.379;   91.30000;    -0.46832;1.00000
 932.496;   91.41000;    -0.46835;1.00000
 933.596;   91.52000;    -0.46846;1.00000
 934.697;   91.63000;    -0.46861;1.00000
 935.802;   91.74000;    -0.46890;1.00000
 936.898;   91.85000;    -0.46924;1.00000
 938.005;   91.96000;    -0.46950;1.00000
 939.118;   92.07000;    -0.46998;1.00000
 940.218;   92.18000;    -0.47044;1.00000
 941.315;   92.29000;    -0.47106;1.00000
 942.424;   92.40000;    -0.47187;1.00000
 943.527;   92.51000;    -0.47257;1.00000
 944.624;   92.62000;    -0.47346;1.00000
 945.727;   92.73000;    -0.47438;1.00000
 946.83;   92.84000;    -0.47533;1.00000
 947.937;   92.95000;    -0.47644;1.00000
 949.032;   93.06000;    -0.47740;1.00000
 950.143;   93.17000;    -0.47861;1.00000
 951.246;   93.28000;    -0.47964;1.00000
 952.345;   93.39000;    -0.48070;1.00000
 953.452;   93.50000;    -0.48168;1.00000
 954.551;   93.61000;    -0.48256;1.00000
 955.652;   93.72000;    -0.48326;1.00000
 956.749;   93.83000;    -0.48377;1.00000
 957.866;   93.94000;    -0.48422;1.00000
 958.959;   94.05000;    -0.48442;1.00000
 960.068;   94.16000;    -0.48444;1.00000
 961.181;   94.27000;    -0.48427;1.00000
 962.282;   94.38000;    -0.48396;1.00000
 963.384;   94.49000;    -0.48346;1.00000
 964.483;   94.60000;    -0.48288;1.00000
 965.592;   94.71000;    -0.48221;1.00000
 966.691;   94.82000;    -0.48132;1.00000
 967.795;   94.93000;    -0.48052;1.00000
 968.906;   95.04000;    -0.47950;1.00000
 970.002;   95.15000;    -0.47842;1.00000
 971.099;   95.26000;    -0.47738;1.00000
 972.201;   95.37000;    -0.47643;1.00000
 973.301;   95.48000;    -0.47543;1.00000
 974.404;   95.59000;    -0.47444;1.00000
 975.506;   95.70000;    -0.47348;1.00000
 976.61;   95.81000;    -0.47250;1.00000
 977.714;   95.92000;    -0.47169;1.00000
 978.807;   96.03000;    -0.47076;1.00000
 979.917;   96.14000;    -0.46995;1.00000
 981.006;   96.25000;    -0.46922;1.00000
 982.115;   96.36000;    -0.46856;1.00000
 983.205;   96.47000;    -0.46781;1.00000
 984.312;   96.58000;    -0.46702;1.00000
 985.422;   96.69000;    -0.46647;1.00000
 986.524;   96.80000;    -0.46581;1.00000
 987.617;   96.91000;    -0.46529;1.00000
 988.726;   97.02000;    -0.46485;1.00000
 989.831;   97.13000;    -0.46438;1.00000
 990.929;   97.24000;    -0.46396;1.00000
 992.029;   97.35000;    -0.46355;1.00000
 993.132;   97.46000;    -0.46317;1.00000
 994.234;   97.57000;    -0.46289;1.00000
 995.336;   97.68000;    -0.46258;1.00000
 996.434;   97.79000;    -0.46229;1.00000
 997.539;   97.90000;    -0.46204;1.00000
 998.651;   98.01000;    -0.46176;1.00000
 999.754;   98.12000;    -0.46155;1.00000
1000.85;   98.23000;    -0.46125;1.00000
1001.96;   98.34000;    -0.46095;1.00000
1003.05;   98.45000;    -0.46077;1.00000
1004.15;   98.56000;    -0.46056;1.00000
1005.25;   98.67000;    -0.46035;1.00000
1006.38;   98.78000;    -0.46022;1.00000
1007.46;   98.89000;    -0.46008;1.00000
1008.57;   99.00000;    -0.46003;1.00000
1009.68;   99.11000;    -0.45997;1.00000
1010.77;   99.22000;    -0.45982;1.00000
1011.88;   99.33000;    -0.45967;1.00000
1012.99;   99.44000;    -0.45964;1.00000
1014.09;   99.55000;    -0.45953;1.00000
1015.19;   99.66000;    -0.45945;1.00000
1016.3;   99.77000;    -0.45931;1.00000
1017.4;   99.88000;    -0.45923;1.00000
1018.51;   99.99000;    -0.45914;1.00000
1019.61;  100.1;    -0.45904;1.00000
1020.7;  100.21;    -0.45897;1.00000
1021.81;  100.32;    -0.45888;1.00000
1022.92;  100.43;    -0.45874;1.00000
1024.04;  100.54;    -0.45866;1.00000
1025.13;  100.65;    -0.45862;1.00000
1026.24;  100.76;    -0.45839;1.00000
1027.34;  100.87;    -0.45828;1.00000
1028.44;  100.98;    -0.45813;1.00000
1029.54;  101.09;    -0.45805;1.00000
1030.65;  101.2;    -0.45787;1.00000
1031.75;  101.31;    -0.45766;1.00000
1032.84;  101.42;    -0.45760;1.00000
1033.96;  101.53;    -0.45743;1.00000
1035.06;  101.64;    -0.45724;1.00000
1036.16;  101.75;    -0.45697;1.00000
1037.28;  101.86;    -0.45678;1.00000
1038.38;  101.97;    -0.45662;1.00000
1039.48;  102.08;    -0.45635;1.00000
1040.59;  102.19;    -0.45618;1.00000
1041.69;  102.3;    -0.45586;1.00000
1042.78;  102.41;    -0.45561;1.00000
1043.89;  102.52;    -0.45542;1.00000
1045;  102.63;    -0.45515;1.00000
1046.11;  102.74;    -0.45487;1.00000
1047.22;  102.85;    -0.45456;1.00000
1048.32;  102.96;    -0.45431;1.00000
1049.42;  103.07;    -0.45402;1.00000
1050.52;  103.18;    -0.45376;1.00000
1051.63;  103.29;    -0.45335;1.00000
1052.74;  103.4;    -0.45304;1.00000
1053.85;  103.51;    -0.45270;1.00000
1054.94;  103.62;    -0.45226;1.00000
1056.05;  103.73;    -0.45191;1.00000
1057.15;  103.84;    -0.45149;1.00000
1058.25;  103.95;    -0.45103;1.00000
1059.36;  104.06;    -0.45054;1.00000
1060.45;  104.17;    -0.45022;1.00000
1061.56;  104.28;    -0.44971;1.00000
1062.67;  104.39;    -0.44917;1.00000
1063.77;  104.5;    -0.44882;1.00000
1064.88;  104.61;    -0.44835;1.00000
1065.99;  104.72;    -0.44771;1.00000
1067.08;  104.83;    -0.44722;1.00000
1068.19;  104.94;    -0.44673;1.00000
1069.29;  105.05;    -0.44624;1.00000
1070.39;  105.16;    -0.44552;1.00000
1071.49;  105.27;    -0.44503;1.00000
1072.6;  105.38;    -0.44453;1.00000
1073.7;  105.49;    -0.44408;1.00000
1074.8;  105.6;    -0.44344;1.00000
1075.91;  105.71;    -0.44285;1.00000
1077;  105.82;    -0.44232;1.00000
1078.1;  105.93;    -0.44168;1.00000
1079.21;  106.04;    -0.44101;1.00000
1080.32;  106.15;    -0.44048;1.00000
1081.42;  106.26;    -0.43981;1.00000
1082.51;  106.37;    -0.43910;1.00000
1083.63;  106.48;    -0.43847;1.00000
1084.74;  106.59;    -0.43785;1.00000
1085.84;  106.7;    -0.43714;1.00000
1086.95;  106.81;    -0.43656;1.00000
1088.04;  106.92;    -0.43578;1.00000
1089.15;  107.03;    -0.43507;1.00000
1090.24;  107.14;    -0.43438;1.00000
1091.34;  107.25;    -0.43355;1.00000
1092.45;  107.36;    -0.43279;1.00000
1093.56;  107.47;    -0.43195;1.00000
1094.65;  107.58;    -0.43116;1.00000
1095.76;  107.69;    -0.43038;1.00000
1096.85;  107.8;    -0.42967;1.00000
1097.96;  107.91;    -0.42898;1.00000
1099.07;  108.02;    -0.42815;1.00000
1100.17;  108.13;    -0.42733;1.00000
1101.27;  108.24;    -0.42649;1.00000
1102.38;  108.35;    -0.42575;1.00000
1103.48;  108.46;    -0.42498;1.00000
1104.58;  108.57;    -0.42415;1.00000
1105.69;  108.68;    -0.42347;1.00000
1106.78;  108.79;    -0.42257;1.00000
1107.9;  108.9;    -0.42168;1.00000
1109;  109.01;    -0.42085;1.00000
1110.1;  109.12;    -0.41999;1.00000
1111.2;  109.23;    -0.41904;1.00000
1112.3;  109.34;    -0.41813;1.00000
1113.4;  109.45;    -0.41720;1.00000
1114.51;  109.56;    -0.41631;1.00000
1115.61;  109.67;    -0.41537;1.00000
1116.71;  109.78;    -0.41443;1.00000
1117.8;  109.89;    -0.41359;1.00000
1118.91;  110;    -0.41270;1.00000
1120.02;  110.11;    -0.41171;1.00000
1121.11;  110.22;    -0.41088;1.00000
1122.22;  110.33;    -0.40993;1.00000
1123.32;  110.44;    -0.40903;1.00000
1124.42;  110.55;    -0.40811;1.00000
1125.53;  110.66;    -0.40733;1.00000
1126.63;  110.77;    -0.40635;1.00000
1127.74;  110.88;    -0.40536;1.00000
1128.84;  110.99;    -0.40439;1.00000
1129.94;  111.1;    -0.40351;1.00000
1131.05;  111.21;    -0.40249;1.00000
1132.14;  111.32;    -0.40150;1.00000
1133.25;  111.43;    -0.40047;1.00000
1134.35;  111.54;    -0.39953;1.00000
1135.45;  111.65;    -0.39857;1.00000
1136.56;  111.76;    -0.39761;1.00000
1137.66;  111.87;    -0.39664;1.00000
1138.76;  111.98;    -0.39558;1.00000
1139.86;  112.09;    -0.39465;1.00000
1140.97;  112.2;    -0.39366;1.00000
1142.07;  112.31;    -0.39260;1.00000
1143.17;  112.42;    -0.39165;1.00000
1144.27;  112.53;    -0.39067;1.00000
1145.37;  112.64;    -0.38954;1.00000
1146.47;  112.75;    -0.38865;1.00000
1147.58;  112.86;    -0.38766;1.00000
1148.68;  112.97;    -0.38666;1.00000
1149.77;  113.08;    -0.38560;1.00000
1150.89;  113.19;    -0.38466;1.00000
1151.97;  113.3;    -0.38372;1.00000
1153.08;  113.41;    -0.38269;1.00000
1154.19;  113.52;    -0.38181;1.00000
1155.28;  113.63;    -0.38087;1.00000
1156.39;  113.74;    -0.37998;1.00000
1157.48;  113.85;    -0.37923;1.00000
1158.58;  113.96;    -0.37830;1.00000
1159.7;  114.07;    -0.37754;1.00000
1160.81;  114.18;    -0.37685;1.00000
1161.9;  114.29;    -0.37625;1.00000
1163.01;  114.4;    -0.37561;1.00000
1164.11;  114.51;    -0.37499;1.00000
1165.21;  114.62;    -0.37441;1.00000
1166.31;  114.73;    -0.37387;1.00000
1167.42;  114.84;    -0.37332;1.00000
1168.52;  114.95;    -0.37279;1.00000
1169.62;  115.06;    -0.37234;1.00000
1170.72;  115.17;    -0.37179;1.00000
1171.82;  115.28;    -0.37136;1.00000
1172.93;  115.39;    -0.37094;1.00000
1174.03;  115.5;    -0.37051;1.00000
1175.13;  115.61;    -0.36991;1.00000
1176.23;  115.72;    -0.36945;1.00000
1177.33;  115.83;    -0.36885;1.00000
1178.44;  115.94;    -0.36827;1.00000
1179.54;  116.05;    -0.36753;1.00000
1180.64;  116.16;    -0.36690;1.00000
1181.75;  116.27;    -0.36622;1.00000
1182.86;  116.38;    -0.36538;1.00000
1183.96;  116.49;    -0.36466;1.00000
1185.06;  116.6;    -0.36385;1.00000
1186.16;  116.71;    -0.36290;1.00000
1187.26;  116.82;    -0.36211;1.00000
1188.36;  116.93;    -0.36131;1.00000
1189.47;  117.04;    -0.36052;1.00000
1190.56;  117.15;    -0.35973;1.00000
1191.67;  117.26;    -0.35883;1.00000
1192.77;  117.37;    -0.35815;1.00000
1193.87;  117.48;    -0.35736;1.00000
1194.96;  117.59;    -0.35657;1.00000
1196.06;  117.7;    -0.35581;1.00000
1197.17;  117.81;    -0.35509;1.00000
1198.27;  117.92;    -0.35428;1.00000
1199.37;  118.03;    -0.35346;1.00000
1200.47;  118.14;    -0.35273;1.00000
1201.57;  118.25;    -0.35206;1.00000
1202.67;  118.36;    -0.35128;1.00000
1203.77;  118.47;    -0.35043;1.00000
1204.87;  118.58;    -0.34970;1.00000
1205.98;  118.69;    -0.34879;1.00000
1207.08;  118.8;    -0.34811;1.00000
1208.18;  118.91;    -0.34722;1.00000
1209.28;  119.02;    -0.34647;1.00000
1210.38;  119.13;    -0.34565;1.00000
1211.47;  119.24;    -0.34484;1.00000
1212.59;  119.35;    -0.34387;1.00000
1213.69;  119.46;    -0.34300;1.00000
1214.79;  119.57;    -0.34192;1.00000
1215.9;  119.68;    -0.34092;1.00000
1216.99;  119.79;    -0.33981;1.00000
1218.1;  119.9;    -0.33872;1.00000
1219.2;  120.01;    -0.33755;1.00000
1220.3;  120.12;    -0.33639;1.00000
1221.41;  120.23;    -0.33520;1.00000
1222.51;  120.34;    -0.33405;1.00000
1223.61;  120.45;    -0.33284;1.00000
1224.71;  120.56;    -0.33149;1.00000
1225.81;  120.67;    -0.33002;1.00000
1226.92;  120.78;    -0.32858;1.00000
1228.02;  120.89;    -0.32703;1.00000
1229.13;  121;    -0.32555;1.00000
1230.23;  121.11;    -0.32390;1.00000
1231.33;  121.22;    -0.32224;1.00000
1232.43;  121.33;    -0.32062;1.00000
1233.53;  121.44;    -0.31900;1.00000
1234.63;  121.55;    -0.31725;1.00000
1235.73;  121.66;    -0.31560;1.00000
1236.82;  121.77;    -0.31387;1.00000
1237.93;  121.88;    -0.31202;1.00000
1239.03;  121.99;    -0.31027;1.00000
1240.12;  122.1;    -0.30849;1.00000
1241.23;  122.21;    -0.30658;1.00000
1242.33;  122.32;    -0.30466;1.00000
1243.43;  122.43;    -0.30268;1.00000
1244.53;  122.54;    -0.30053;1.00000
1245.63;  122.65;    -0.29848;1.00000
1246.73;  122.76;    -0.29636;1.00000
1247.82;  122.87;    -0.29413;1.00000
1248.93;  122.98;    -0.29206;1.00000
1250.04;  123.09;    -0.28982;1.00000
1251.13;  123.2;    -0.28788;1.00000
1252.23;  123.31;    -0.28575;1.00000
1253.34;  123.42;    -0.28361;1.00000
1254.44;  123.53;    -0.28136;1.00000
1255.54;  123.64;    -0.27917;1.00000
1256.65;  123.75;    -0.27695;1.00000
1257.76;  123.86;    -0.27480;1.00000
1258.85;  123.97;    -0.27252;1.00000
1259.96;  124.08;    -0.27007;1.00000
1261.04;  124.19;    -0.26775;1.00000
1262.16;  124.3;    -0.26532;1.00000
1263.26;  124.41;    -0.26291;1.00000
1264.35;  124.52;    -0.26058;1.00000
1265.45;  124.63;    -0.25813;1.00000
1266.56;  124.74;    -0.25568;1.00000
1267.65;  124.85;    -0.25342;1.00000
1268.76;  124.96;    -0.25106;1.00000
1269.86;  125.07;    -0.24878;1.00000
1270.95;  125.18;    -0.24644;1.00000
1272.05;  125.29;    -0.24405;1.00000
1273.15;  125.4;    -0.24178;1.00000
1274.26;  125.51;    -0.23938;1.00000
1275.35;  125.62;    -0.23701;1.00000
1276.47;  125.73;    -0.23468;1.00000
1277.56;  125.84;    -0.23233;1.00000
1278.66;  125.95;    -0.22996;1.00000
1279.76;  126.06;    -0.22765;1.00000
1280.87;  126.17;    -0.22542;1.00000
1281.98;  126.28;    -0.22311;1.00000
1283.09;  126.39;    -0.22073;1.00000
1284.19;  126.5;    -0.21841;1.00000
1285.29;  126.61;    -0.21602;1.00000
1286.4;  126.72;    -0.21363;1.00000
1287.5;  126.83;    -0.21136;1.00000
1288.62;  126.94;    -0.20896;1.00000
1289.7;  127.05;    -0.20654;1.00000
1290.81;  127.16;    -0.20409;1.00000
1291.9;  127.27;    -0.20165;1.00000
1293.01;  127.38;    -0.19916;1.00000
1294.11;  127.49;    -0.19681;1.00000
1295.2;  127.6;    -0.19437;1.00000
1296.31;  127.71;    -0.19196;1.00000
1297.4;  127.82;    -0.18953;1.00000
1298.5;  127.93;    -0.18703;1.00000
1299.2;  128;    -0.18542;1.00000