File: charts/20230801/TGA/SATURADAS/Cs-STD 4A.txt
06/07/2023 14:43:51
User name: Gabs
Comments: Programa 3
Number	time(s)	mass(g)	Relative_mass(%)	Sample_T(C)	PV(C)	SV(C)
1.0	0.0	0.1509	100.0	30.0	65.0	65.0
6.0	8.0	0.1505	99.73492	30.75	68.0	66.0
10.0	16.0	0.1503	99.60239	31.75	71.0	66.0
13.0	22.0	0.1503	99.60239	32.5	75.0	67.0
16.0	28.0	0.1503	99.60239	33.5	76.0	67.0
19.0	34.0	0.1503	99.60239	34.25	79.0	68.0
23.0	42.0	0.1503	99.60239	35.0	81.0	68.0
26.0	48.0	0.1503	99.60239	35.75	82.0	69.0
31.0	58.0	0.1502	99.53612	36.5	84.0	70.0
35.0	66.0	0.1502	99.53612	37.25	84.0	70.0
40.0	76.0	0.1502	99.53612	38.0	85.0	71.0
44.0	84.0	0.1502	99.53612	38.75	85.0	72.0
50.0	96.0	0.1503	99.60239	39.5	85.0	73.0
57.0	110.0	0.1503	99.60239	40.25	85.0	74.0
65.0	126.0	0.1501	99.46985	41.0	85.0	75.0
77.0	150.0	0.1498	99.27104	41.75	85.0	77.0
92.0	180.0	0.1499	99.33731	42.5	84.0	80.0
111.0	218.0	0.1491	98.80716	43.25	84.0	83.0
118.0	232.0	0.1497	99.20477	44.0	85.0	84.0
124.0	244.0	0.1497	99.20477	44.75	88.0	85.0
129.0	254.0	0.1497	99.20477	45.5	89.0	86.0
135.0	266.0	0.1497	99.20477	46.25	91.0	87.0
142.0	280.0	0.1496	99.1385	47.0	91.0	88.0
150.0	296.0	0.1496	99.1385	47.75	92.0	90.0
161.0	318.0	0.1495	99.07223	48.5	92.0	91.0
166.0	328.0	0.1493	98.9397	49.25	93.0	92.0
172.0	340.0	0.1494	99.00596	50.0	95.0	93.0
178.0	352.0	0.1494	99.00596	50.75	96.0	94.0
184.0	364.0	0.1494	99.00596	51.5	98.0	95.0
192.0	380.0	0.1493	98.9397	52.25	98.0	97.0
203.0	402.0	0.1486	98.47581	53.0	98.0	98.0
208.0	412.0	0.1481	98.14447	53.75	99.0	99.0
213.0	422.0	0.1487	98.54208	54.5	102.0	100.0
217.0	430.0	0.149	98.74089	55.25	103.0	101.0
223.0	442.0	0.149	98.74089	56.0	104.0	102.0
230.0	456.0	0.149	98.74089	56.75	104.0	103.0
236.0	468.0	0.149	98.74089	57.5	104.0	104.0
243.0	482.0	0.1489	98.67462	58.25	106.0	105.0
251.0	498.0	0.1485	98.40954	59.0	107.0	106.0
257.0	510.0	0.1487	98.54208	59.75	108.0	107.0
262.0	520.0	0.1487	98.54208	60.5	108.0	108.0
267.0	530.0	0.1487	98.54208	61.25	111.0	109.0
272.0	540.0	0.1487	98.54208	62.0	111.0	110.0
278.0	552.0	0.1487	98.54208	62.75	112.0	111.0
287.0	570.0	0.1486	98.47581	63.5	112.0	112.0
292.0	580.0	0.1483	98.277	64.25	114.0	113.0
296.0	588.0	0.1484	98.34327	65.0	115.0	114.0
300.0	596.0	0.1483	98.277	65.75	115.0	114.0
306.0	608.0	0.1484	98.34327	66.5	116.0	115.0
312.0	620.0	0.1483	98.277	67.25	118.0	116.0
319.0	634.0	0.1478	97.94566	68.0	118.0	118.0
326.0	648.0	0.1482	98.21074	68.75	119.0	119.0
332.0	660.0	0.1481	98.14447	69.5	120.0	120.0
336.0	668.0	0.1481	98.14447	70.25	122.0	120.0
341.0	678.0	0.1481	98.14447	71.0	122.0	121.0
347.0	690.0	0.1481	98.14447	71.75	123.0	122.0
355.0	706.0	0.1474	97.68058	72.5	124.0	124.0
360.0	716.0	0.1478	97.94566	73.25	124.0	124.0
365.0	726.0	0.1478	97.94566	74.0	125.0	125.0
369.0	734.0	0.1478	97.94566	74.75	127.0	126.0
375.0	746.0	0.1478	97.94566	75.5	128.0	127.0
381.0	758.0	0.1478	97.94566	76.25	128.0	128.0
387.0	770.0	0.1476	97.81312	77.0	129.0	129.0
392.0	780.0	0.1477	97.87939	77.75	131.0	130.0
397.0	790.0	0.1476	97.81312	78.5	132.0	131.0
403.0	802.0	0.1474	97.68058	79.25	132.0	132.0
410.0	816.0	0.1475	97.74685	80.0	133.0	133.0
414.0	824.0	0.1474	97.68058	80.75	133.0	133.0
420.0	836.0	0.1474	97.68058	81.5	134.0	134.0
425.0	846.0	0.1471	97.48178	82.25	136.0	135.0
431.0	858.0	0.1472	97.54805	83.0	137.0	136.0
437.0	870.0	0.147	97.41551	83.75	137.0	137.0
443.0	882.0	0.1471	97.48178	84.5	138.0	138.0
447.0	890.0	0.147	97.41551	85.25	140.0	139.0
452.0	900.0	0.147	97.41551	86.0	140.0	140.0
458.0	912.0	0.147	97.41551	86.75	141.0	141.0
463.0	922.0	0.147	97.41551	87.5	141.0	142.0
469.0	934.0	0.1468	97.28297	88.25	143.0	143.0
474.0	944.0	0.1469	97.34924	89.0	143.0	143.0
480.0	956.0	0.1468	97.28297	89.75	145.0	144.0
485.0	966.0	0.1467	97.2167	90.5	145.0	145.0
492.0	980.0	0.1468	97.28297	91.25	146.0	146.0
497.0	990.0	0.1466	97.15043	92.0	147.0	147.0
502.0	1000.0	0.1465	97.08416	93.0	148.0	148.0
508.0	1012.0	0.1464	97.01789	93.75	150.0	149.0
514.0	1024.0	0.1464	97.01789	94.5	151.0	150.0
521.0	1038.0	0.1464	97.01789	95.25	151.0	151.0
526.0	1048.0	0.1463	96.95162	96.0	151.0	152.0
531.0	1058.0	0.1456	96.48774	96.75	153.0	153.0
534.0	1064.0	0.1457	96.55401	97.5	155.0	153.0
539.0	1074.0	0.1461	96.81909	98.25	155.0	154.0
545.0	1086.0	0.146	96.75282	99.0	156.0	155.0
552.0	1100.0	0.146	96.75282	99.75	156.0	156.0
557.0	1110.0	0.1459	96.68655	100.5	157.0	157.0
564.0	1124.0	0.1459	96.68655	101.75	159.0	158.0
569.0	1134.0	0.1458	96.62028	102.5	159.0	159.0
574.0	1144.0	0.1459	96.68655	103.25	161.0	160.0
580.0	1156.0	0.1459	96.68655	104.0	161.0	161.0
588.0	1172.0	0.1447	95.89132	104.75	162.0	162.0
593.0	1182.0	0.1454	96.3552	105.5	163.0	163.0
598.0	1192.0	0.1455	96.42147	106.5	164.0	164.0
603.0	1202.0	0.1454	96.3552	107.25	166.0	165.0
609.0	1214.0	0.1451	96.15639	108.0	166.0	166.0
615.0	1226.0	0.1455	96.42147	108.75	167.0	167.0
620.0	1236.0	0.1454	96.3552	109.5	167.0	168.0
626.0	1248.0	0.1453	96.28893	110.25	168.0	169.0
630.0	1256.0	0.1453	96.28893	111.0	169.0	169.0
635.0	1266.0	0.1453	96.28893	111.75	171.0	170.0
641.0	1278.0	0.1452	96.22266	112.5	172.0	171.0
648.0	1292.0	0.1451	96.15639	113.25	172.0	172.0
653.0	1302.0	0.1449	96.02386	114.0	173.0	173.0
657.0	1310.0	0.1449	96.02386	114.75	174.0	174.0
662.0	1320.0	0.1441	95.4937	115.5	175.0	175.0
666.0	1328.0	0.1444	95.69251	116.25	175.0	175.0
672.0	1340.0	0.1445	95.75878	117.0	177.0	176.0
679.0	1354.0	0.1442	95.55997	117.75	178.0	177.0
686.0	1368.0	0.1445	95.75878	118.5	178.0	179.0
690.0	1376.0	0.1447	95.89132	119.25	179.0	179.0
695.0	1386.0	0.144	95.42744	120.0	180.0	180.0
699.0	1394.0	0.1445	95.75878	120.75	182.0	181.0
705.0	1406.0	0.1445	95.75878	121.5	182.0	182.0
710.0	1416.0	0.1444	95.69251	122.25	183.0	183.0
717.0	1430.0	0.1442	95.55997	123.0	183.0	184.0
721.0	1438.0	0.1443	95.62624	123.5	184.0	184.0
725.0	1446.0	0.1443	95.62624	124.5	185.0	185.0
730.0	1456.0	0.1441	95.4937	125.25	186.0	186.0
736.0	1468.0	0.143	94.76474	126.0	188.0	187.0
741.0	1478.0	0.1442	95.55997	126.75	188.0	188.0
746.0	1488.0	0.1438	95.2949	127.5	189.0	189.0
753.0	1502.0	0.1439	95.36117	128.25	189.0	190.0
758.0	1512.0	0.1439	95.36117	129.0	190.0	191.0
762.0	1520.0	0.1436	95.16236	129.75	191.0	191.0
765.0	1526.0	0.1434	95.02982	130.5	192.0	192.0
769.0	1534.0	0.1436	95.16236	131.25	194.0	192.0
775.0	1546.0	0.1433	94.96355	132.0	194.0	193.0
782.0	1560.0	0.1436	95.16236	132.75	195.0	194.0
792.0	1580.0	0.1433	94.96355	133.75	195.0	196.0
796.0	1588.0	0.1434	95.02982	134.5	197.0	197.0
799.0	1594.0	0.1433	94.96355	135.25	199.0	197.0
803.0	1602.0	0.1432	94.89728	136.0	200.0	198.0
807.0	1610.0	0.1433	94.96355	136.75	200.0	199.0
814.0	1624.0	0.1432	94.89728	137.5	200.0	200.0
821.0	1638.0	0.1431	94.83101	138.25	201.0	201.0
827.0	1650.0	0.143	94.76474	139.0	202.0	202.0
832.0	1660.0	0.1427	94.56594	139.75	203.0	203.0
836.0	1668.0	0.1428	94.63221	140.5	203.0	203.0
839.0	1674.0	0.1428	94.63221	141.25	204.0	204.0
844.0	1684.0	0.1422	94.23459	142.0	206.0	205.0
849.0	1694.0	0.1422	94.23459	142.75	207.0	206.0
858.0	1712.0	0.1425	94.4334	143.5	207.0	207.0
863.0	1722.0	0.1421	94.16832	144.25	208.0	208.0
867.0	1730.0	0.1424	94.36713	145.0	209.0	209.0
871.0	1738.0	0.1424	94.36713	145.75	210.0	209.0
876.0	1748.0	0.1423	94.30086	146.5	210.0	210.0
881.0	1758.0	0.1422	94.23459	147.25	211.0	211.0
886.0	1768.0	0.1421	94.16832	148.0	213.0	212.0
894.0	1784.0	0.142	94.10205	148.75	213.0	213.0
899.0	1794.0	0.142	94.10205	149.5	214.0	214.0
904.0	1804.0	0.1419	94.03579	150.25	214.0	215.0
909.0	1814.0	0.1415	93.77071	151.0	216.0	216.0
913.0	1822.0	0.1414	93.70444	151.75	216.0	216.0
916.0	1828.0	0.1416	93.83698	152.5	217.0	217.0
921.0	1838.0	0.1414	93.70444	153.25	218.0	218.0
926.0	1848.0	0.1415	93.77071	154.0	218.0	218.0
931.0	1858.0	0.1414	93.70444	154.75	221.0	219.0
937.0	1870.0	0.1411	93.50563	155.5	221.0	220.0
946.0	1888.0	0.1407	93.24056	156.25	222.0	222.0
951.0	1898.0	0.1409	93.37309	157.0	222.0	223.0
955.0	1906.0	0.1409	93.37309	157.75	223.0	223.0
959.0	1914.0	0.1407	93.24056	158.5	224.0	224.0
963.0	1922.0	0.1407	93.24056	159.25	225.0	225.0
968.0	1932.0	0.1405	93.10802	160.0	226.0	225.0
973.0	1942.0	0.1405	93.10802	160.75	226.0	226.0
979.0	1954.0	0.1406	93.17429	161.5	226.0	227.0
984.0	1964.0	0.1405	93.10802	162.25	229.0	228.0
990.0	1976.0	0.1404	93.04175	163.0	230.0	229.0
999.0	1994.0	0.1403	92.97548	163.75	230.0	231.0
1003.0	2002.0	0.1402	92.90921	164.5	231.0	231.0
1007.0	2010.0	0.1402	92.90921	165.25	232.0	232.0
1011.0	2018.0	0.14	92.77667	166.0	233.0	233.0
1016.0	2028.0	0.14	92.77667	166.75	234.0
1022.0	2040.0	0.1399	92.7104	167.5	234.0	234.0
1027.0	2050.0	0.1398	92.64414	168.25	235.0	235.0
1032.0	2060.0	0.1397	92.57787	169.0	237.0	236.0
1038.0	2072.0	0.1396	92.5116	169.75	237.0	237.0
1045.0	2086.0	0.1395	92.44533	170.5	238.0	238.0
1049.0	2094.0	0.1394	92.37906	171.25	238.0	239.0
1053.0	2102.0	0.1393	92.31279	172.0	240.0	239.0
1058.0	2112.0	0.1392	92.24652	172.75	240.0	240.0
1063.0	2122.0	0.1391	92.18025	173.5	241.0	241.0
1067.0	2130.0	0.139	92.11398	174.25	242.0	242.0
1073.0	2142.0	0.1388	91.98144	175.0	243.0	243.0
1077.0	2150.0	0.1387	91.91518	175.75	243.0	243.0
1082.0	2160.0	0.1386	91.84891	176.5	245.0	244.0
1089.0	2174.0	0.1384	91.71637	177.25	245.0	245.0
1095.0	2186.0	0.1384	91.71637	178.0	246.0	246.0
1099.0	2194.0	0.1382	91.58383	178.75	247.0	247.0
1104.0	2204.0	0.138	91.45129	179.5	248.0	248.0
1108.0	2212.0	0.138	91.45129	180.25	249.0	249.0
1112.0	2220.0	0.1379	91.38502	181.0	249.0	249.0
1117.0	2230.0	0.1377	91.25249	181.75	250.0	250.0
1122.0	2240.0	0.1377	91.25249	182.5	251.0	251.0
1127.0	2250.0	0.1377	91.25249	183.25	252.0	252.0
1132.0	2260.0	0.1376	91.18622	184.0	252.0	253.0
1137.0	2270.0	0.1377	91.25249	184.75	254.0	253.0
1143.0	2282.0	0.1373	90.98741	185.5	254.0	254.0
1149.0	2294.0	0.1372	90.92114	186.25	255.0	255.0
1154.0	2304.0	0.1372	90.92114	187.25	256.0	256.0
1159.0	2314.0	0.1369	90.72233	188.0	257.0	257.0
1163.0	2322.0	0.1368	90.65606	188.75	258.0	258.0
1168.0	2332.0	0.1367	90.58979	189.5	258.0	259.0
1173.0	2342.0	0.1365	90.45726	190.25	259.0	259.0
1178.0	2352.0	0.1363	90.32472	191.0	260.0	260.0
1183.0	2362.0	0.1363	90.32472	191.75	261.0	261.0
1188.0	2372.0	0.1362	90.25845	192.5	263.0	262.0
1193.0	2382.0	0.1363	90.32472	193.25	263.0	263.0
1200.0	2396.0	0.1359	90.05964	194.0	263.0	264.0
1204.0	2404.0	0.1359	90.05964	194.75	264.0	265.0
1208.0	2412.0	0.1357	89.9271	195.5	265.0	265.0
1211.0	2418.0	0.1355	89.79457	196.25	266.0	266.0
1215.0	2426.0	0.1354	89.7283	197.0	267.0	266.0
1221.0	2438.0	0.1353	89.66203	197.75	267.0	267.0
1226.0	2448.0	0.1352	89.59576	198.5	268.0	268.0
1231.0	2458.0	0.1349	89.39695	199.25	269.0	269.0
1235.0	2466.0	0.1348	89.33068	200.0	270.0	270.0
1240.0	2476.0	0.1347	89.26441	200.75	270.0	271.0
1245.0	2486.0	0.1346	89.19814	201.75	271.0	271.0
1253.0	2502.0	0.1344	89.06561	202.5	273.0	273.0
1262.0	2520.0	0.1342	88.93307	203.5	273.0	274.0
1266.0	2528.0	0.1341	88.8668	204.25	275.0	275.0
1270.0	2536.0	0.1339	88.73426	205.25	276.0	275.0
1273.0	2542.0	0.1339	88.73426	206.0	277.0	276.0
1277.0	2550.0	0.1336	88.53545	206.75	277.0	277.0
1283.0	2562.0	0.1335	88.46918	207.5	277.0	278.0
1288.0	2572.0	0.1334	88.40292	208.25	278.0	278.0
1294.0	2584.0	0.1332	88.27038	209.25	279.0	279.0
1298.0	2592.0	0.1331	88.20411	210.0	280.0	280.0
1302.0	2600.0	0.1329	88.07157	210.75	281.0	281.0
1306.0	2608.0	0.1328	88.0053	211.5	283.0	281.0
1313.0	2622.0	0.1326	87.87276	212.25	283.0	283.0
1320.0	2636.0	0.1326	87.87276	213.0	283.0	284.0
1324.0	2644.0	0.1324	87.74023	213.75	284.0	284.0
1327.0	2650.0	0.1323	87.67396	214.5	285.0	285.0
1331.0	2658.0	0.132	87.47515	215.5	286.0	286.0
1337.0	2670.0	0.1319	87.40888	216.25	287.0	287.0
1342.0	2680.0	0.1319	87.40888	217.0	287.0	287.0
1347.0	2690.0	0.1318	87.34261	217.75	288.0	288.0
1350.0	2696.0	0.1318	87.34261	218.75	289.0	289.0
1353.0	2702.0	0.1317	87.27634	219.5	290.0	289.0
1356.0	2708.0	0.1316	87.21007	220.25	290.0	290.0
1359.0	2714.0	0.1313	87.01127	221.0	290.0	290.0
1363.0	2722.0	0.1312	86.945	221.75	291.0	291.0
1368.0	2732.0	0.131	86.81246	222.5	291.0	292.0
1373.0	2742.0	0.1309	86.74619	223.25	293.0	293.0
1379.0	2754.0	0.1307	86.61365	224.0	294.0	294.0
1386.0	2768.0	0.1305	86.48111	224.75	295.0	295.0
1390.0	2776.0	0.1303	86.34858	225.5	295.0	295.0
1394.0	2784.0	0.1303	86.34858	226.25	296.0	296.0
1399.0	2794.0	0.1301	86.21604	227.0	297.0	297.0
1404.0	2804.0	0.1299	86.0835	227.75	298.0	298.0
1409.0	2814.0	0.1298	86.01723	228.5	299.0	299.0
1413.0	2822.0	0.1297	85.95096	229.25	299.0	299.0
1418.0	2832.0	0.1295	85.81842	230.0	300.0	300.0
1422.0	2840.0	0.1294	85.75215	230.75	301.0	301.0
1426.0	2848.0	0.1293	85.68588	231.5	302.0	301.0
1431.0	2858.0	0.1292	85.61962	232.25	302.0	302.0
1435.0	2866.0	0.1291	85.55335	233.0	304.0	303.0
1441.0	2878.0	0.129	85.48708	233.75	304.0	304.0
1448.0	2892.0	0.1288	85.35454	234.5	305.0	305.0
1453.0	2902.0	0.1286	85.222	235.25	306.0	306.0
1457.0	2910.0	0.1285	85.15573	236.0	307.0	307.0
1462.0	2920.0	0.1284	85.08946	237.0	307.0	307.0
1466.0	2928.0	0.1283	85.02319	237.75	308.0	308.0
1471.0	2938.0	0.1283	85.02319	238.5	309.0	309.0
1476.0	2948.0	0.1281	84.89066	239.25	309.0	310.0
1480.0	2956.0	0.128	84.82439	240.0	310.0	310.0
1483.0	2962.0	0.128	84.82439	240.75	311.0	311.0
1487.0	2970.0	0.1279	84.75812	241.5	312.0	312.0
1493.0	2982.0	0.1277	84.62558	242.5	313.0	313.0
1497.0	2990.0	0.1276	84.55931	243.25	313.0	313.0
1502.0	3000.0	0.1275	84.49304	244.0	314.0	314.0
1509.0	3014.0	0.1275	84.49304	245.0	316.0	315.0
1518.0	3032.0	0.1274	84.42677	245.75	316.0	317.0
1522.0	3040.0	0.1277	84.62558	246.5	317.0	317.0
1525.0	3046.0	0.1272	84.29423	247.25	317.0	318.0
1528.0	3052.0	0.1271	84.22797	248.25	319.0	318.0
1531.0	3058.0	0.127	84.1617	249.0	319.0	319.0
1535.0	3066.0	0.1269	84.09543	249.75	320.0	319.0
1541.0	3078.0	0.1268	84.02916	250.5	320.0	320.0
1545.0	3086.0	0.127	84.1617	251.25	321.0	321.0
1548.0	3092.0	0.1268	84.02916	252.0	322.0	322.0
1553.0	3102.0	0.1267	83.96289	253.0	323.0	322.0
1556.0	3108.0	0.1267	83.96289	253.75	323.0	323.0
1561.0	3118.0	0.1267	83.96289	254.5	324.0	324.0
1565.0	3126.0	0.1268	84.02916	255.25	324.0	324.0
1569.0	3134.0	0.1265	83.83035	256.0	325.0	325.0
1573.0	3142.0	0.1262	83.63154	256.75	326.0	326.0
1578.0	3152.0	0.1263	83.69781	257.75	327.0	327.0
1583.0	3162.0	0.1262	83.63154	258.5	329.0	327.0
1594.0	3184.0	0.126	83.49901	259.25	327.0	329.0
1598.0	3192.0	0.126	83.49901	260.0	330.0	330.0
1601.0	3198.0	0.126	83.49901	260.75	331.0	330.0
1604.0	3204.0	0.126	83.49901	261.5	332.0	331.0
1610.0	3216.0	0.1259	83.43274	262.25	332.0	332.0
1616.0	3228.0	0.126	83.49901	263.0	332.0	333.0
1620.0	3236.0	0.1259	83.43274	263.75	334.0	334.0
1623.0	3242.0	0.1258	83.36647	264.5	334.0	334.0
1627.0	3250.0	0.1257	83.3002	265.25	335.0	335.0
1631.0	3258.0	0.1257	83.3002	266.0	336.0	335.0
1637.0	3270.0	0.1256	83.23393	266.75	336.0	336.0
1641.0	3278.0	0.1256	83.23393	267.5	337.0	337.0
1645.0	3286.0	0.1257	83.3002	268.25	338.0	338.0
1648.0	3292.0	0.1256	83.23393	269.0	338.0	338.0
1651.0	3298.0	0.1254	83.10139	269.75	339.0	339.0
1655.0	3306.0	0.1255	83.16766	270.5	339.0	339.0
1659.0	3314.0	0.1254	83.10139	271.25	340.0	340.0
1663.0	3322.0	0.1251	82.90258	272.0	341.0	341.0
1668.0	3332.0	0.1252	82.96885	272.75	341.0	342.0
1672.0	3340.0	0.1252	82.96885	273.5	343.0	342.0
1682.0	3360.0	0.1252	82.96885	274.25	343.0	344.0
1686.0	3368.0	0.1251	82.90258	275.0	344.0	345.0
1689.0	3374.0	0.1251	82.90258	275.75	345.0	345.0
1694.0	3384.0	0.1251	82.90258	276.5	346.0	346.0
1698.0	3392.0	0.125	82.83632	277.25	347.0	347.0
1703.0	3402.0	0.125	82.83632	278.0	347.0	347.0
1708.0	3412.0	0.125	82.83632	278.75	348.0	348.0
1712.0	3420.0	0.1249	82.77005	279.5	349.0	349.0
1715.0	3426.0	0.1249	82.77005	280.25	349.0	349.0
1719.0	3434.0	0.1249	82.77005	281.0	350.0	350.0
1724.0	3444.0	0.1249	82.77005	281.75	351.0	351.0
1728.0	3452.0	0.1248	82.70378	282.5	351.0	352.0
1732.0	3460.0	0.1248	82.70378	283.25	352.0	352.0
1736.0	3468.0	0.1248	82.70378	284.0	353.0	353.0
1740.0	3476.0	0.1247	82.63751	284.75	354.0	354.0
1745.0	3486.0	0.1248	82.70378	285.5	354.0	354.0
1750.0	3496.0	0.1246	82.57124	286.25	355.0	355.0
1753.0	3502.0	0.1246	82.57124	287.0	356.0	356.0
1757.0	3510.0	0.1246	82.57124	287.75	356.0	356.0
1761.0	3518.0	0.1246	82.57124	288.5	357.0	357.0
1765.0	3526.0	0.1245	82.50497	289.25	359.0	358.0
1775.0	3546.0	0.1245	82.50497	290.0	359.0	359.0
1780.0	3556.0	0.1244	82.4387	290.75	359.0	360.0
1784.0	3564.0	0.1244	82.4387	291.75	361.0	361.0
1789.0	3574.0	0.1243	82.37243	292.75	362.0	362.0
1794.0	3584.0	0.1243	82.37243	293.5	363.0	362.0
1799.0	3594.0	0.1243	82.37243	294.25	363.0	363.0
1803.0	3602.0	0.1242	82.30616	295.0	363.0	364.0
1807.0	3610.0	0.1243	82.37243	295.75	365.0	365.0
1810.0	3616.0	0.1243	82.37243	296.5	365.0	365.0
1814.0	3624.0	0.1243	82.37243	297.25	366.0	366.0
1819.0	3634.0	0.1243	82.37243	298.0	366.0	367.0
1823.0	3642.0	0.1243	82.37243	298.75	367.0	367.0
1826.0	3648.0	0.1243	82.37243	299.5	368.0	368.0
1830.0	3656.0	0.1242	82.30616	300.25	368.0	368.0
1833.0	3662.0	0.1242	82.30616	301.0	369.0	369.0
1838.0	3672.0	0.1243	82.37243	302.0	370.0	370.0
1843.0	3682.0	0.1242	82.30616	302.75	370.0	371.0
1847.0	3690.0	0.1241	82.23989	303.5	371.0	371.0
1851.0	3698.0	0.124	82.17362	304.25	372.0	372.0
1854.0	3704.0	0.124	82.17362	305.0	372.0	372.0
1857.0	3710.0	0.124	82.17362	305.75	373.0	373.0
1863.0	3722.0	0.124	82.17362	306.5	374.0	374.0
1869.0	3734.0	0.124	82.17362	307.25	374.0	375.0
1872.0	3740.0	0.124	82.17362	308.0	375.0	375.0
1875.0	3746.0	0.124	82.17362	308.75	377.0	376.0
1880.0	3756.0	0.124	82.17362	309.5	378.0	377.0
1888.0	3772.0	0.1239	82.10736	310.25	378.0	378.0
1893.0	3782.0	0.1238	82.04109	311.0	379.0	379.0
1897.0	3790.0	0.1238	82.04109	311.75	380.0	380.0
1902.0	3800.0	0.1237	81.97482	312.5	380.0	380.0
1906.0	3808.0	0.1237	81.97482	313.25	381.0	381.0
1911.0	3818.0	0.1237	81.97482	314.0	382.0	382.0
1915.0	3826.0	0.1237	81.97482	315.0	383.0	383.0
1921.0	3838.0	0.1237	81.97482	315.75	383.0	384.0
1925.0	3846.0	0.1237	81.97482	316.5	384.0	384.0
1929.0	3854.0	0.1237	81.97482	317.25	385.0	385.0
1933.0	3862.0	0.1237	81.97482	318.0	385.0	386.0
1937.0	3870.0	0.1237	81.97482	319.0	386.0	386.0
1941.0	3878.0	0.1237	81.97482	319.75	387.0	387.0
1946.0	3888.0	0.1237	81.97482	320.5	387.0	388.0
1950.0	3896.0	0.1236	81.90855	321.5	388.0	388.0
1955.0	3906.0	0.1236	81.90855	322.5	389.0	389.0
1959.0	3914.0	0.1236	81.90855	323.25	390.0	390.0
1963.0	3922.0	0.1235	81.84228	324.0	390.0	391.0
1967.0	3930.0	0.1235	81.84228	324.75	391.0	391.0
1972.0	3940.0	0.1234	81.77601	325.75	392.0	392.0
1977.0	3950.0	0.1234	81.77601	326.5	393.0	393.0
1982.0	3960.0	0.1234	81.77601	327.25	393.0	394.0
1985.0	3966.0	0.1234	81.77601	328.0	394.0	394.0
1989.0	3974.0	0.1234	81.77601	329.0	395.0	395.0
1993.0	3982.0	0.1234	81.77601	329.75	398.0	396.0
1998.0	3992.0	0.1234	81.77601	330.5	396.0	396.0
2003.0	4002.0	0.1234	81.77601	331.25	398.0	397.0
2013.0	4022.0	0.1234	81.77601	332.0	398.0	399.0
2017.0	4030.0	0.1234	81.77601	332.75	399.0	400.0
2020.0	4036.0	0.1234	81.77601	333.5	400.0	400.0
2023.0	4042.0	0.1233	81.70974	334.25	401.0	401.0
2026.0	4048.0	0.1232	81.64347	335.0	401.0	401.0
2030.0	4056.0	0.1233	81.70974	335.75	402.0	402.0
2035.0	4066.0	0.1232	81.64347	336.5	402.0	402.0
2042.0	4080.0	0.1231	81.5772	337.25	403.0	404.0
2047.0	4090.0	0.1231	81.5772	338.0	404.0	404.0
2050.0	4096.0	0.123	81.51093	338.75	406.0	405.0
2054.0	4104.0	0.123	81.51093	339.5	406.0	406.0
2058.0	4112.0	0.123	81.51093	340.25	407.0	406.0
2064.0	4124.0	0.1231	81.5772	341.0	406.0	407.0
2068.0	4132.0	0.1231	81.5772	342.0	407.0	408.0
2071.0	4138.0	0.1231	81.5772	342.75	409.0	408.0
2074.0	4144.0	0.123	81.51093	343.5	410.0	409.0
2079.0	4154.0	0.1231	81.5772	344.25	410.0	410.0
2087.0	4170.0	0.1229	81.44467	345.0	411.0	411.0
2091.0	4178.0	0.123	81.51093	345.75	412.0	412.0
2095.0	4186.0	0.123	81.51093	346.5	413.0	412.0
2098.0	4192.0	0.123	81.51093	347.25	413.0	413.0
2103.0	4202.0	0.1231	81.5772	348.0	414.0	414.0
2107.0	4210.0	0.1229	81.44467	348.75	414.0	414.0
2111.0	4218.0	0.123	81.51093	349.5	415.0	415.0
2115.0	4226.0	0.1228	81.3784	350.25	416.0	416.0
2119.0	4234.0	0.1228	81.3784	351.0	416.0	416.0
2123.0	4242.0	0.1227	81.31213	351.75	417.0	417.0
2127.0	4250.0	0.1228	81.3784	352.5	418.0	418.0
2132.0	4260.0	0.1229	81.44467	353.25	418.0	419.0
2135.0	4266.0	0.1229	81.44467	354.0	419.0	419.0
2139.0	4274.0	0.1229	81.44467	354.75	420.0	420.0
2143.0	4282.0	0.1229	81.44467	355.5	420.0	420.0
2147.0	4290.0	0.1229	81.44467	356.25	421.0	421.0
2150.0	4296.0	0.1227	81.31213	357.0	422.0	422.0
2154.0	4304.0	0.1226	81.24586	357.75	422.0	422.0
2166.0	4328.0	0.1227	81.31213	358.5	422.0	424.0
2169.0	4334.0	0.1228	81.3784	359.25	425.0	425.0
2173.0	4342.0	0.1228	81.3784	360.25	426.0	425.0
2177.0	4350.0	0.1229	81.44467	361.0	426.0	426.0
2182.0	4360.0	0.1227	81.31213	361.75	427.0	427.0
2185.0	4366.0	0.1227	81.31213	362.5	427.0	427.0
2189.0	4374.0	0.1225	81.17959	363.25	428.0	428.0
2193.0	4382.0	0.1226	81.24586	364.0	429.0	429.0
2197.0	4390.0	0.1226	81.24586	364.75	429.0	429.0
2202.0	4400.0	0.1226	81.24586	365.5	430.0	430.0
2208.0	4412.0	0.1226	81.24586	366.5	431.0	431.0
2211.0	4418.0	0.1227	81.31213	367.25	432.0	432.0
2215.0	4426.0	0.1227	81.31213	368.0	432.0	432.0
2219.0	4434.0	0.1227	81.31213	368.75	433.0	433.0
2224.0	4444.0	0.1227	81.31213	369.5	434.0	434.0
2229.0	4454.0	0.1226	81.24586	370.5	434.0	435.0
2234.0	4464.0	0.1226	81.24586	371.5	436.0	436.0
2238.0	4472.0	0.1226	81.24586	372.25	436.0	436.0
2242.0	4480.0	0.1226	81.24586	373.0	437.0	437.0
2247.0	4490.0	0.1226	81.24586	373.75	437.0	438.0
2250.0	4496.0	0.1226	81.24586	374.5	438.0	438.0
2254.0	4504.0	0.1226	81.24586	375.25	439.0	439.0
2259.0	4514.0	0.1225	81.17959	376.0	439.0	440.0
2262.0	4520.0	0.1225	81.17959	376.75	440.0	440.0
2266.0	4528.0	0.1225	81.17959	377.5	441.0	441.0
2270.0	4536.0	0.1225	81.17959	378.25	441.0	442.0
2274.0	4544.0	0.1224	81.11332	379.0	442.0	442.0
2279.0	4554.0	0.1224	81.11332	379.75	443.0	443.0
2283.0	4562.0	0.1223	81.04705	380.5	444.0	444.0
2286.0	4568.0	0.1224	81.11332	381.25	444.0	444.0
2291.0	4578.0	0.1224	81.11332	382.0	445.0	445.0
2294.0	4584.0	0.1224	81.11332	382.75	445.0	445.0
2299.0	4594.0	0.1224	81.11332	383.75	447.0	446.0
2303.0	4602.0	0.1224	81.11332	384.5	447.0	447.0
2308.0	4612.0	0.1225	81.17959	385.25	448.0	448.0
2314.0	4624.0	0.1224	81.11332	386.0	448.0	449.0
2318.0	4632.0	0.1223	81.04705	386.75	449.0	449.0
2322.0	4640.0	0.1222	80.98078	387.75	450.0	450.0
2327.0	4650.0	0.1224	81.11332	388.75	451.0	451.0
2330.0	4656.0	0.1223	81.04705	389.5	451.0	451.0
2334.0	4664.0	0.1222	80.98078	390.25	452.0	452.0
2339.0	4674.0	0.1221	80.91451	391.0	453.0	453.0
2342.0	4680.0	0.1221	80.91451	391.75	454.0	453.0
2347.0	4690.0	0.1222	80.98078	392.5	454.0	454.0
2351.0	4698.0	0.1222	80.98078	393.25	455.0	455.0
2355.0	4706.0	0.1222	80.98078	394.0	455.0	456.0
2359.0	4714.0	0.1223	81.04705	394.75	456.0	456.0
2363.0	4722.0	0.1223	81.04705	395.5	456.0	457.0
2367.0	4730.0	0.1222	80.98078	396.25	457.0	458.0
2370.0	4736.0	0.1223	81.04705	397.0	458.0	458.0
2374.0	4744.0	0.1222	80.98078	397.75	459.0	459.0
2382.0	4760.0	0.1222	80.98078	398.5	459.0	460.0
2385.0	4766.0	0.1222	80.98078	399.25	461.0	461.0
2389.0	4774.0	0.1222	80.98078	400.0	462.0	461.0
2399.0	4794.0	0.1222	80.98078	400.75	462.0	463.0
2403.0	4802.0	0.1222	80.98078	401.5	463.0	464.0
2406.0	4808.0	0.1222	80.98078	402.5	464.0	464.0
2410.0	4816.0	0.1221	80.91451	403.25	465.0	465.0
2414.0	4824.0	0.1221	80.91451	404.25	465.0	465.0
2420.0	4836.0	0.122	80.84824	405.0	466.0	466.0
2424.0	4844.0	0.122	80.84824	405.75	466.0	467.0
2427.0	4850.0	0.122	80.84824	406.5	467.0	468.0
2430.0	4856.0	0.1221	80.91451	407.25	468.0	468.0
2435.0	4866.0	0.1221	80.91451	408.25	469.0	469.0
2440.0	4876.0	0.1221	80.91451	409.0	469.0	470.0
2445.0	4886.0	0.1221	80.91451	409.75	470.0	471.0
2448.0	4892.0	0.1221	80.91451	410.5	471.0	471.0
2451.0	4898.0	0.1221	80.91451	411.25	472.0	472.0
2454.0	4904.0	0.122	80.84824	412.0	472.0	472.0
2458.0	4912.0	0.122	80.84824	412.75	473.0	473.0
2464.0	4924.0	0.122	80.84824	413.5	473.0	474.0
2468.0	4932.0	0.1221	80.91451	414.25	474.0	474.0
2474.0	4944.0	0.122	80.84824	415.0	475.0	475.0
2478.0	4952.0	0.122	80.84824	415.75	476.0	476.0
2482.0	4960.0	0.122	80.84824	416.5	476.0	477.0
2486.0	4968.0	0.1219	80.78197	417.25	477.0	477.0
2489.0	4974.0	0.1219	80.78197	418.0	478.0	478.0
2493.0	4982.0	0.122	80.84824	418.75	479.0	479.0
2498.0	4992.0	0.122	80.84824	419.5	479.0	479.0
2503.0	5002.0	0.1219	80.78197	420.25	480.0	480.0
2508.0	5012.0	0.1219	80.78197	421.5	481.0	481.0
2512.0	5020.0	0.1219	80.78197	422.25	482.0	482.0
2516.0	5028.0	0.1219	80.78197	423.0	482.0	482.0
2520.0	5036.0	0.1218	80.71571	423.75	483.0	483.0
2524.0	5044.0	0.1219	80.78197	424.5	484.0	484.0
2528.0	5052.0	0.1218	80.71571	425.25	485.0	484.0
2533.0	5062.0	0.1218	80.71571	426.0	485.0	485.0
2537.0	5070.0	0.1218	80.71571	426.75	486.0	486.0
2542.0	5080.0	0.1219	80.78197	427.75	487.0	487.0
2546.0	5088.0	0.1219	80.78197	428.5	488.0	487.0
2551.0	5098.0	0.1219	80.78197	429.25	488.0	488.0
2556.0	5108.0	0.1218	80.71571	430.0	489.0	489.0
2560.0	5116.0	0.1218	80.71571	430.75	490.0	490.0
2564.0	5124.0	0.1217	80.64944	431.5	490.0	490.0
2569.0	5134.0	0.1218	80.71571	432.25	491.0	491.0
2573.0	5142.0	0.1218	80.71571	433.0	492.0	492.0
2576.0	5148.0	0.1218	80.71571	433.75	492.0	492.0
2580.0	5156.0	0.1218	80.71571	434.5	493.0	493.0
2585.0	5166.0	0.1219	80.78197	435.25	494.0	494.0
2590.0	5176.0	0.1219	80.78197	436.0	494.0	495.0
2595.0	5186.0	0.1219	80.78197	437.25	495.0	495.0
2599.0	5194.0	0.1219	80.78197	438.25	496.0	496.0
2603.0	5202.0	0.1218	80.71571	439.0	497.0	497.0
2607.0	5210.0	0.1218	80.71571	439.75	498.0	497.0
2613.0	5222.0	0.1217	80.64944	440.5	498.0	498.0
2617.0	5230.0	0.1217	80.64944	441.25	499.0	499.0
2621.0	5238.0	0.1216	80.58317	442.0	500.0	500.0
2624.0	5244.0	0.1217	80.64944	442.75	500.0	500.0
2628.0	5252.0	0.1218	80.71571	443.5	501.0	501.0
2632.0	5260.0	0.1218	80.71571	444.25	502.0	502.0
2637.0	5270.0	0.1218	80.71571	445.0	502.0	502.0
2641.0	5278.0	0.1218	80.71571	445.75	503.0	503.0
2646.0	5288.0	0.1218	80.71571	446.5	503.0	504.0
2650.0	5296.0	0.1217	80.64944	447.5	504.0	505.0
2654.0	5304.0	0.1217	80.64944	448.25	505.0	505.0
2658.0	5312.0	0.1216	80.58317	449.0	506.0	506.0
2662.0	5320.0	0.1216	80.58317	449.75	507.0	507.0
2667.0	5330.0	0.1216	80.58317	450.5	507.0	507.0
2671.0	5338.0	0.1216	80.58317	451.25	508.0	508.0
2675.0	5346.0	0.1215	80.5169	452.0	508.0	509.0
2680.0	5356.0	0.1215	80.5169	453.0	510.0	510.0
2685.0	5366.0	0.1215	80.5169	453.75	510.0	510.0
2688.0	5372.0	0.1215	80.5169	454.5	511.0	511.0
2693.0	5382.0	0.1216	80.58317	455.25	511.0	512.0
2698.0	5392.0	0.1216	80.58317	456.0	512.0	513.0
2701.0	5398.0	0.1216	80.58317	456.75	513.0	513.0
2706.0	5408.0	0.1215	80.5169	457.5	514.0	514.0
2710.0	5416.0	0.1215	80.5169	458.25	514.0	515.0
2714.0	5424.0	0.1213	80.38436	459.0	515.0	515.0
2717.0	5430.0	0.1213	80.38436	459.75	516.0	516.0
2722.0	5440.0	0.1215	80.5169	460.5	516.0	517.0
2727.0	5450.0	0.1214	80.45063	461.25	517.0	517.0
2732.0	5460.0	0.1213	80.38436	462.0	518.0	518.0
2735.0	5466.0	0.1214	80.45063	462.75	519.0	519.0
2739.0	5474.0	0.1214	80.45063	463.75	520.0	519.0
2743.0	5482.0	0.1214	80.45063	464.5	520.0	520.0
2748.0	5492.0	0.1214	80.45063	465.25	520.0	521.0
2753.0	5502.0	0.1214	80.45063	466.0	521.0	522.0
2757.0	5510.0	0.1214	80.45063	467.0	522.0	522.0
2761.0	5518.0	0.1214	80.45063	467.75	523.0	523.0
2765.0	5526.0	0.1214	80.45063	468.5	523.0	524.0
2770.0	5536.0	0.1214	80.45063	469.25	524.0	525.0
2775.0	5546.0	0.1215	80.5169	470.0	525.0	525.0
2778.0	5552.0	0.1214	80.45063	470.75	526.0	526.0
2782.0	5560.0	0.1214	80.45063	471.5	526.0	527.0
2785.0	5566.0	0.1217	80.64944	472.25	527.0	527.0
2788.0	5572.0	0.1214	80.45063	473.0	528.0	528.0
2793.0	5582.0	0.1213	80.38436	473.75	528.0	528.0
2798.0	5592.0	0.1214	80.45063	474.5	529.0	529.0
2801.0	5598.0	0.1213	80.38436	475.25	530.0	530.0
2807.0	5610.0	0.1211	80.25182	476.0	530.0	531.0
2811.0	5618.0	0.1214	80.45063	476.75	531.0	531.0
2816.0	5628.0	0.1213	80.38436	477.5	532.0	532.0
2819.0	5634.0	0.1214	80.45063	478.25	532.0	533.0
2822.0	5640.0	0.1214	80.45063	479.0	533.0	533.0
2827.0	5650.0	0.1214	80.45063	479.75	534.0	534.0
2831.0	5658.0	0.1215	80.5169	480.5	534.0	535.0
2834.0	5664.0	0.1215	80.5169	481.25	535.0	535.0
2839.0	5674.0	0.1213	80.38436	482.25	536.0	536.0
2843.0	5682.0	0.1213	80.38436	483.0	537.0	537.0
2849.0	5694.0	0.1211	80.25182	483.75	537.0	538.0
2853.0	5702.0	0.1212	80.31809	484.5	538.0	538.0
2857.0	5710.0	0.1213	80.38436	485.25	539.0	539.0
2863.0	5722.0	0.1213	80.38436	486.0	540.0	540.0
2866.0	5728.0	0.1213	80.38436	486.75	540.0	540.0
2869.0	5734.0	0.1214	80.45063	487.5	541.0	541.0
2874.0	5744.0	0.1212	80.31809	488.25	541.0	542.0
2879.0	5754.0	0.1212	80.31809	489.25	543.0	543.0
2883.0	5762.0	0.1213	80.38436	490.0	543.0	543.0
2887.0	5770.0	0.1212	80.31809	490.75	544.0	544.0
2892.0	5780.0	0.1212	80.31809	491.5	544.0	545.0
2896.0	5788.0	0.1212	80.31809	492.25	545.0	545.0
2901.0	5798.0	0.1211	80.25182	493.25	546.0	546.0
2905.0	5806.0	0.1212	80.31809	494.0	547.0	547.0
2910.0	5816.0	0.1212	80.31809	494.75	548.0	548.0
2913.0	5822.0	0.1212	80.31809	495.5	548.0	548.0
2917.0	5830.0	0.1212	80.31809	496.25	549.0	549.0
2922.0	5840.0	0.1213	80.38436	497.0	550.0	550.0
2926.0	5848.0	0.1213	80.38436	497.75	550.0	550.0
2930.0	5856.0	0.1214	80.45063	498.75	551.0	551.0
2936.0	5868.0	0.1213	80.38436	499.75	552.0	552.0
2941.0	5878.0	0.1213	80.38436	500.5	553.0	553.0
2944.0	5884.0	0.1213	80.38436	501.25	554.0	553.0
2949.0	5894.0	0.1213	80.38436	502.0	554.0	554.0
2953.0	5902.0	0.1213	80.38436	502.75	555.0	555.0
2957.0	5910.0	0.1212	80.31809	503.5	555.0	556.0
2962.0	5920.0	0.1211	80.25182	504.25	556.0	556.0
2967.0	5930.0	0.1211	80.25182	505.25	557.0	557.0
2971.0	5938.0	0.121	80.18555	506.0	558.0	558.0
2975.0	5946.0	0.121	80.18555	506.75	559.0	559.0
2981.0	5958.0	0.121	80.18555	507.5	559.0	560.0
2985.0	5966.0	0.1211	80.25182	508.25	560.0	560.0
2989.0	5974.0	0.1211	80.25182	509.0	561.0	561.0
2994.0	5984.0	0.1212	80.31809	509.75	562.0	562.0
2997.0	5990.0	0.1212	80.31809	510.5	562.0	562.0
3001.0	5998.0	0.1211	80.25182	511.25	563.0	563.0
3006.0	6008.0	0.1211	80.25182	512.0	564.0	564.0
3010.0	6016.0	0.1211	80.25182	512.75	564.0	564.0
3014.0	6024.0	0.121	80.18555	513.5	565.0	565.0
3017.0	6030.0	0.121	80.18555	514.25	565.0	566.0
3021.0	6038.0	0.121	80.18555	515.0	566.0	566.0
3025.0	6046.0	0.121	80.18555	515.75	567.0	567.0
3030.0	6056.0	0.1209	80.11928	516.5	568.0	568.0
3036.0	6068.0	0.121	80.18555	517.25	568.0	569.0
3040.0	6076.0	0.121	80.18555	518.0	569.0	569.0
3043.0	6082.0	0.121	80.18555	518.75	570.0	570.0
3048.0	6092.0	0.1209	80.11928	519.75	571.0	571.0
3053.0	6102.0	0.1209	80.11928	520.5	572.0	571.0
3057.0	6110.0	0.121	80.18555	521.25	572.0	572.0
3062.0	6120.0	0.121	80.18555	522.0	573.0	573.0
3066.0	6128.0	0.121	80.18555	522.75	574.0	574.0
3070.0	6136.0	0.121	80.18555	523.5	574.0	574.0
3074.0	6144.0	0.121	80.18555	524.25	575.0	575.0
3079.0	6154.0	0.121	80.18555	525.0	575.0	576.0
3082.0	6160.0	0.121	80.18555	525.75	576.0	576.0
3088.0	6172.0	0.121	80.18555	526.5	577.0	577.0
3092.0	6180.0	0.1209	80.11928	527.25	577.0	578.0
3096.0	6188.0	0.1209	80.11928	528.25	579.0	579.0
3101.0	6198.0	0.1208	80.05302	529.0	579.0	579.0
3105.0	6206.0	0.1208	80.05302	529.75	580.0	580.0
3110.0	6216.0	0.1208	80.05302	530.75	581.0	581.0
3114.0	6224.0	0.1208	80.05302	531.5	582.0	582.0
3121.0	6238.0	0.1209	80.11928	532.25	582.0	583.0
3124.0	6244.0	0.1208	80.05302	533.0	583.0	583.0
3129.0	6254.0	0.1209	80.11928	534.0	584.0	584.0
3134.0	6264.0	0.1209	80.11928	534.75	584.0	585.0
3139.0	6274.0	0.1209	80.11928	535.5	585.0	586.0
3143.0	6282.0	0.1209	80.11928	536.25	586.0	586.0
3146.0	6288.0	0.1209	80.11928	537.0	587.0	587.0
3150.0	6296.0	0.1209	80.11928	537.75	588.0	588.0
3156.0	6308.0	0.1209	80.11928	538.5	588.0	589.0
3160.0	6316.0	0.121	80.18555	539.25	589.0	589.0
3165.0	6326.0	0.1209	80.11928	540.0	590.0	590.0
3168.0	6332.0	0.1209	80.11928	540.75	590.0	591.0
3171.0	6338.0	0.1209	80.11928	541.5	591.0	591.0
3175.0	6346.0	0.121	80.18555	542.25	592.0	592.0
3180.0	6356.0	0.1209	80.11928	543.0	593.0	593.0
3185.0	6366.0	0.1207	79.98675	543.75	593.0	593.0
3189.0	6374.0	0.1207	79.98675	544.5	594.0	594.0
3193.0	6382.0	0.1207	79.98675	545.25	595.0	595.0
3198.0	6392.0	0.1208	80.05302	546.0	595.0	596.0
3202.0	6400.0	0.1208	80.05302	546.75	596.0	596.0
3206.0	6408.0	0.1207	79.98675	547.5	596.0	597.0
3210.0	6416.0	0.1207	79.98675	548.25	597.0	598.0
3214.0	6424.0	0.1208	80.05302	549.0	598.0	598.0
3218.0	6432.0	0.1207	79.98675	549.75	599.0	599.0
3221.0	6438.0	0.1207	79.98675	550.5	599.0	599.0
3225.0	6446.0	0.1207	79.98675	551.25	599.0	600.0
3228.0	6452.0	0.1207	79.98675	552.25	600.0	601.0
3231.0	6458.0	0.1207	79.98675	553.25	601.0	601.0
3234.0	6464.0	0.1207	79.98675	554.0	602.0	602.0
3239.0	6474.0	0.1207	79.98675	554.75	602.0	602.0
3244.0	6484.0	0.1207	79.98675	555.5	603.0	603.0
3248.0	6492.0	0.1207	79.98675	556.25	604.0	604.0
3253.0	6502.0	0.1207	79.98675	557.0	605.0	605.0
3258.0	6512.0	0.1208	80.05302	557.75	605.0	606.0
3263.0	6522.0	0.1207	79.98675	558.5	606.0	606.0
3268.0	6532.0	0.1207	79.98675	559.25	607.0	607.0
3274.0	6544.0	0.1207	79.98675	560.0	608.0	608.0
3277.0	6550.0	0.1206	79.92048	560.75	608.0	609.0
3280.0	6556.0	0.1206	79.92048	561.5	609.0	609.0
3285.0	6566.0	0.1207	79.98675	562.25	610.0	610.0
3291.0	6578.0	0.1207	79.98675	563.25	610.0	611.0
3295.0	6586.0	0.1206	79.92048	564.25	612.0	612.0
3298.0	6592.0	0.1208	80.05302	565.25	612.0	612.0
3302.0	6600.0	0.1207	79.98675	566.0	613.0	613.0
3309.0	6614.0	0.1205	79.85421	566.75	614.0	614.0
3313.0	6622.0	0.1206	79.92048	567.5	614.0	615.0
3318.0	6632.0	0.1205	79.85421	568.25	615.0	615.0
3322.0	6640.0	0.1206	79.92048	569.0	616.0	616.0
3327.0	6650.0	0.1206	79.92048	569.75	617.0	617.0
3332.0	6660.0	0.1205	79.85421	570.5	617.0	618.0
3335.0	6666.0	0.1206	79.92048	571.25	618.0	618.0
3339.0	6674.0	0.1205	79.85421	572.0	619.0	619.0
3343.0	6682.0	0.1205	79.85421	572.75	620.0	620.0
3349.0	6694.0	0.1205	79.85421	573.5	621.0	621.0
3353.0	6702.0	0.1206	79.92048	574.25	621.0	621.0
3356.0	6708.0	0.1205	79.85421	575.0	622.0	622.0
3362.0	6720.0	0.1204	79.78794	575.75	623.0	623.0
3367.0	6730.0	0.1204	79.78794	576.5	623.0	624.0
3371.0	6738.0	0.1205	79.85421	577.25	624.0	624.0
3374.0	6744.0	0.1205	79.85421	578.0	624.0	625.0
3377.0	6750.0	0.1205	79.85421	578.75	625.0	625.0
3384.0	6764.0	0.1205	79.85421	579.75	626.0	626.0
3387.0	6770.0	0.1205	79.85421	580.5	627.0	627.0
3392.0	6780.0	0.1205	79.85421	581.25	628.0	628.0
3396.0	6788.0	0.1204	79.78794	582.0	628.0	628.0
3402.0	6800.0	0.1204	79.78794	582.75	629.0	629.0
3406.0	6808.0	0.1205	79.85421	583.5	630.0	630.0
3411.0	6818.0	0.1205	79.85421	584.25	631.0	631.0
3415.0	6826.0	0.1205	79.85421	585.0	631.0	632.0
3419.0	6834.0	0.1206	79.92048	585.75	632.0	632.0
3423.0	6842.0	0.1205	79.85421	586.5	633.0	633.0
3432.0	6860.0	0.1205	79.85421	587.5	634.0	634.0
3438.0	6872.0	0.1204	79.78794	588.25	635.0	635.0
3441.0	6878.0	0.1204	79.78794	589.0	635.0	636.0
3444.0	6884.0	0.1204	79.78794	589.75	636.0	636.0
3447.0	6890.0	0.1204	79.78794	590.5	637.0	637.0
3451.0	6898.0	0.1204	79.78794	591.25	638.0	638.0
3458.0	6912.0	0.1204	79.78794	592.0	638.0	639.0
3462.0	6920.0	0.1204	79.78794	592.75	639.0	639.0
3465.0	6926.0	0.1204	79.78794	593.5	640.0	640.0
3468.0	6932.0	0.1203	79.72167	594.25	641.0	640.0
3474.0	6944.0	0.1203	79.72167	595.0	641.0	641.0
3479.0	6954.0	0.1203	79.72167	595.75	642.0	642.0
3483.0	6962.0	0.1203	79.72167	596.5	643.0	643.0
3487.0	6970.0	0.1203	79.72167	597.25	643.0	644.0
3491.0	6978.0	0.1203	79.72167	598.25	643.0	644.0
3494.0	6984.0	0.1203	79.72167	599.25	644.0	645.0
3497.0	6990.0	0.1203	79.72167	600.0	645.0	645.0
3500.0	6996.0	0.1203	79.72167	600.75	646.0	646.0
3504.0	7004.0	0.1204	79.78794	601.5	647.0	646.0
3509.0	7014.0	0.1204	79.78794	602.25	647.0	647.0
3514.0	7024.0	0.1203	79.72167	603.0	648.0	648.0
3520.0	7036.0	0.1203	79.72167	603.75	649.0	649.0
3525.0	7046.0	0.1203	79.72167	604.5	649.0	650.0
3529.0	7054.0	0.1203	79.72167	605.25	650.0	651.0
3533.0	7062.0	0.1203	79.72167	606.0	651.0	651.0
3537.0	7070.0	0.1204	79.78794	606.75	652.0	652.0
3542.0	7080.0	0.1202	79.6554	607.5	652.0	653.0
3547.0	7090.0	0.1202	79.6554	608.25	653.0	654.0
3552.0	7100.0	0.1203	79.72167	609.0	654.0	654.0
3556.0	7108.0	0.1203	79.72167	609.75	655.0	655.0
3559.0	7114.0	0.1202	79.6554	610.5	655.0	656.0
3564.0	7124.0	0.1202	79.6554	611.25	656.0	656.0
3568.0	7132.0	0.1202	79.6554	612.0	657.0	657.0
3574.0	7144.0	0.1202	79.6554	612.75	657.0	658.0
3579.0	7154.0	0.1202	79.6554	613.5	658.0	659.0
3582.0	7160.0	0.1202	79.6554	614.25	659.0	659.0
3586.0	7168.0	0.1201	79.58913	615.0	660.0	660.0
3590.0	7176.0	0.1201	79.58913	615.75	660.0	661.0
3596.0	7188.0	0.1201	79.58913	616.5	661.0	662.0
3602.0	7200.0	0.1201	79.58913	617.5	662.0	663.0
3607.0	7210.0	0.1201	79.58913	618.25	663.0	663.0
3610.0	7216.0	0.1201	79.58913	619.0	664.0	664.0
3615.0	7226.0	0.1201	79.58913	619.75	664.0	665.0
3620.0	7236.0	0.1201	79.58913	620.5	665.0	666.0
3626.0	7248.0	0.1201	79.58913	621.25	666.0	667.0
3630.0	7256.0	0.1201	79.58913	622.0	667.0	667.0
3634.0	7264.0	0.1201	79.58913	622.75	668.0	668.0
3637.0	7270.0	0.1201	79.58913	623.5	668.0	668.0
3642.0	7280.0	0.1201	79.58913	624.25	669.0	669.0
3646.0	7288.0	0.1201	79.58913	625.0	670.0	670.0
3651.0	7298.0	0.1201	79.58913	625.75	670.0	671.0
3656.0	7308.0	0.1201	79.58913	626.5	671.0	672.0
3660.0	7316.0	0.12	79.52286	627.25	671.0	672.0
3663.0	7322.0	0.12	79.52286	628.0	672.0	673.0
3666.0	7328.0	0.12	79.52286	629.0	673.0	673.0
3669.0	7334.0	0.12	79.52286	629.75	673.0	674.0
3672.0	7340.0	0.12	79.52286	630.5	674.0	674.0
3677.0	7350.0	0.12	79.52286	631.25	675.0	675.0
3682.0	7360.0	0.12	79.52286	632.0	675.0	676.0
3687.0	7370.0	0.12	79.52286	632.75	676.0	677.0
3690.0	7376.0	0.1201	79.58913	633.5	677.0	677.0
3694.0	7384.0	0.1201	79.58913	634.25	677.0	678.0
3699.0	7394.0	0.1201	79.58913	635.0	678.0	679.0
3705.0	7406.0	0.12	79.52286	635.75	679.0	680.0
3710.0	7416.0	0.1196	79.25779	636.5	680.0	681.0
3713.0	7422.0	0.1198	79.39032	637.25	681.0	681.0
3718.0	7432.0	0.12	79.52286	638.0	681.0	682.0
3723.0	7442.0	0.12	79.52286	638.75	683.0	683.0
3728.0	7452.0	0.12	79.52286	639.5	683.0	684.0
3732.0	7460.0	0.12	79.52286	640.25	684.0	684.0
3739.0	7474.0	0.12	79.52286	641.0	685.0	685.0
3742.0	7480.0	0.1199	79.45659	641.75	685.0	686.0
3745.0	7486.0	0.12	79.52286	642.5	686.0	686.0
3750.0	7496.0	0.1199	79.45659	643.25	687.0	687.0
3756.0	7508.0	0.1198	79.39032	644.0	688.0	688.0
3760.0	7516.0	0.1197	79.32406	644.75	688.0	689.0
3766.0	7528.0	0.1199	79.45659	645.75	689.0	690.0
3771.0	7538.0	0.1199	79.45659	646.5	690.0	691.0
3774.0	7544.0	0.1199	79.45659	647.25	691.0	691.0
3778.0	7552.0	0.1199	79.45659	648.0	692.0	692.0
3785.0	7566.0	0.1197	79.32406	648.75	692.0	693.0
3790.0	7576.0	0.1199	79.45659	649.5	693.0	694.0
3793.0	7582.0	0.1199	79.45659	650.5	693.0	694.0
3797.0	7590.0	0.1199	79.45659	651.75	695.0	695.0
3800.0	7596.0	0.1199	79.45659	652.5	695.0	696.0
3803.0	7602.0	0.1199	79.45659	653.25	696.0	696.0
3806.0	7608.0	0.1199	79.45659	654.0	696.0	697.0
3813.0	7622.0	0.1199	79.45659	654.75	697.0	698.0
3819.0	7634.0	0.1197	79.32406	655.75	698.0	699.0
3823.0	7642.0	0.1199	79.45659	656.5	699.0	699.0
3829.0	7654.0	0.1198	79.39032	657.25	700.0	700.0
3834.0	7664.0	0.1199	79.45659	658.0	700.0	701.0
3839.0	7674.0	0.1195	79.19152	659.0	702.0	702.0
3844.0	7684.0	0.1198	79.39032	659.75	702.0	703.0
3852.0	7700.0	0.1199	79.45659	660.5	703.0	704.0
3858.0	7712.0	0.1198	79.39032	661.25	704.0	705.0
3863.0	7722.0	0.1199	79.45659	662.25	705.0	706.0
3866.0	7728.0	0.1198	79.39032	663.0	706.0	706.0
3870.0	7736.0	0.1198	79.39032	663.75	707.0	707.0
3876.0	7748.0	0.1198	79.39032	664.5	708.0	708.0
3882.0	7760.0	0.1198	79.39032	665.25	708.0	709.0
3885.0	7766.0	0.1198	79.39032	666.0	709.0	710.0
3891.0	7778.0	0.1198	79.39032	666.75	710.0	711.0
3895.0	7786.0	0.1198	79.39032	667.5	710.0	711.0
3899.0	7794.0	0.1198	79.39032	668.25	710.0	712.0
3902.0	7800.0	0.1198	79.39032	669.0	712.0	712.0
3906.0	7808.0	0.1198	79.39032	669.75	712.0	713.0
3909.0	7814.0	0.1198	79.39032	670.5	712.0	714.0
3913.0	7822.0	0.1198	79.39032	671.75	713.0	714.0
3917.0	7830.0	0.1198	79.39032	672.5	715.0	715.0
3922.0	7840.0	0.1198	79.39032	673.25	716.0	716.0
3930.0	7856.0	0.1197	79.32406	674.0	716.0	717.0
3934.0	7864.0	0.1197	79.32406	674.75	717.0	718.0
3937.0	7870.0	0.1197	79.32406	675.5	718.0	718.0
3941.0	7878.0	0.1197	79.32406	676.25	719.0	719.0
3947.0	7890.0	0.1196	79.25779	677.0	719.0	720.0
3954.0	7904.0	0.1197	79.32406	677.75	720.0	721.0
3958.0	7912.0	0.1197	79.32406	678.5	721.0	722.0
3963.0	7922.0	0.1197	79.32406	679.5	722.0	723.0
3968.0	7932.0	0.1196	79.25779	680.5	723.0	723.0
3973.0	7942.0	0.1191	78.92644	681.25	724.0	724.0
3978.0	7952.0	0.1196	79.25779	682.0	724.0	725.0
3984.0	7964.0	0.1197	79.32406	682.75	725.0	726.0
3988.0	7972.0	0.1197	79.32406	683.5	726.0	727.0
3993.0	7982.0	0.1197	79.32406	684.25	727.0	728.0
3999.0	7994.0	0.1197	79.32406	685.0	728.0	729.0
4003.0	8002.0	0.1197	79.32406	685.75	728.0	729.0
4007.0	8010.0	0.1197	79.32406	686.5	729.0	730.0
4010.0	8016.0	0.1196	79.25779	687.25	729.0	730.0
4013.0	8022.0	0.1196	79.25779	688.25	730.0	731.0
4017.0	8030.0	0.1196	79.25779	689.25	731.0	732.0
4020.0	8036.0	0.1196	79.25779	690.0	731.0	732.0
4023.0	8042.0	0.1196	79.25779	690.75	732.0	733.0
4028.0	8052.0	0.1196	79.25779	691.5	733.0	733.0
4034.0	8064.0	0.1195	79.19152	692.25	734.0	734.0
4040.0	8076.0	0.1195	79.19152	693.0	734.0	735.0
4044.0	8084.0	0.1196	79.25779	693.75	735.0	736.0
4048.0	8092.0	0.1195	79.19152	694.5	736.0	737.0
4055.0	8106.0	0.1195	79.19152	695.25	737.0	738.0
4061.0	8118.0	0.1195	79.19152	696.25	738.0	739.0
4066.0	8128.0	0.1195	79.19152	697.0	739.0	740.0
4071.0	8138.0	0.1194	79.12525	698.0	740.0	740.0
4076.0	8148.0	0.1194	79.12525	698.75	741.0	741.0
4082.0	8160.0	0.1194	79.12525	699.5	742.0	742.0
4087.0	8170.0	0.1194	79.12525	700.25	742.0	743.0
4093.0	8182.0	0.1194	79.12525	701.0	743.0	744.0
4097.0	8190.0	0.1194	79.12525	701.75	744.0	745.0
4101.0	8198.0	0.1194	79.12525	702.5	743.0	745.0
4104.0	8204.0	0.1194	79.12525	703.25	745.0	746.0
4108.0	8212.0	0.1194	79.12525	704.0	745.0	747.0
4112.0	8220.0	0.1194	79.12525	704.75	746.0	747.0
4115.0	8226.0	0.1193	79.05898	705.5	747.0	748.0
4119.0	8234.0	0.1193	79.05898	706.25	747.0	748.0
4123.0	8242.0	0.1194	79.12525	707.0	748.0	749.0
4127.0	8250.0	0.1193	79.05898	707.75	748.0	750.0
4131.0	8258.0	0.1193	79.05898	708.5	750.0	750.0
4137.0	8270.0	0.1193	79.05898	709.25	751.0	751.0
4141.0	8278.0	0.1193	79.05898	710.0	751.0	752.0
4148.0	8292.0	0.1193	79.05898	710.75	752.0	753.0
4153.0	8302.0	0.1193	79.05898	711.5	753.0	754.0
4157.0	8310.0	0.1193	79.05898	712.25	754.0	755.0
4161.0	8318.0	0.1193	79.05898	713.0	754.0	755.0
4165.0	8326.0	0.1193	79.05898	713.75	755.0	756.0
4169.0	8334.0	0.1193	79.05898	714.5	756.0	757.0
4175.0	8346.0	0.1193	79.05898	715.25	757.0	758.0
4180.0	8356.0	0.1192	78.99271	716.0	758.0	759.0
4187.0	8370.0	0.1192	78.99271	716.75	758.0	760.0
4192.0	8380.0	0.1192	78.99271	717.5	758.0	761.0
4196.0	8388.0	0.1192	78.99271	718.25	760.0	761.0
4201.0	8398.0	0.1193	79.05898	719.0	760.0	762.0
4204.0	8404.0	0.1192	78.99271	719.75	761.0	763.0
4209.0	8414.0	0.1192	78.99271	720.5	761.0	763.0
4215.0	8426.0	0.1192	78.99271	721.5	762.0	764.0
4219.0	8434.0	0.1192	78.99271	722.25	763.0	765.0
4224.0	8444.0	0.1192	78.99271	723.0	764.0	766.0
4228.0	8452.0	0.1192	78.99271	723.75	765.0	767.0
4233.0	8462.0	0.1192	78.99271	724.5	765.0	767.0
4239.0	8474.0	0.1192	78.99271	725.25	766.0	768.0
4243.0	8482.0	0.1192	78.99271	726.0	767.0	769.0
4247.0	8490.0	0.1192	78.99271	726.75	768.0	770.0
4252.0	8500.0	0.1192	78.99271	727.5	769.0	771.0
4258.0	8512.0	0.1191	78.92644	728.25	769.0	772.0
4262.0	8520.0	0.1191	78.92644	729.0	770.0	772.0
4268.0	8532.0	0.1191	78.92644	729.75	771.0	773.0
4273.0	8542.0	0.1191	78.92644	730.5	772.0	774.0
4280.0	8556.0	0.1191	78.92644	731.25	772.0	775.0
4285.0	8566.0	0.1191	78.92644	732.0	773.0	776.0
4290.0	8576.0	0.1191	78.92644	732.75	774.0	777.0
4296.0	8588.0	0.119	78.86017	733.5	775.0	778.0
4301.0	8598.0	0.1191	78.92644	734.25	775.0	779.0
4307.0	8610.0	0.119	78.86017	735.0	776.0	780.0
4313.0	8622.0	0.119	78.86017	735.75	776.0	781.0
4321.0	8638.0	0.119	78.86017	736.5	778.0	782.0
4327.0	8650.0	0.119	78.86017	737.25	779.0	783.0
4334.0	8664.0	0.119	78.86017	738.0	779.0	784.0
4340.0	8676.0	0.119	78.86017	738.75	780.0	785.0
4346.0	8688.0	0.119	78.86017	739.5	781.0	786.0
4353.0	8702.0	0.119	78.86017	740.25	782.0	787.0
4359.0	8714.0	0.119	78.86017	741.0	783.0	788.0
4368.0	8732.0	0.119	78.86017	741.75	784.0	790.0
4375.0	8746.0	0.119	78.86017	742.5	784.0	791.0
4382.0	8760.0	0.119	78.86017	743.25	784.0	792.0
4388.0	8772.0	0.1189	78.7939	744.0	785.0	793.0
4395.0	8786.0	0.1189	78.7939	744.75	787.0	794.0
4401.0	8798.0	0.1189	78.7939	745.5	787.0	795.0
4408.0	8812.0	0.1189	78.7939	746.25	788.0	796.0
4415.0	8826.0	0.1189	78.7939	747.0	789.0	798.0
4421.0	8838.0	0.1189	78.7939	747.75	789.0	799.0
4426.0	8848.0	0.1189	78.7939	748.5	791.0	799.0
4432.0	8860.0	0.1189	78.7939	749.25	791.0	800.0
4438.0	8872.0	0.1188	78.72763	750.0	792.0	801.0
4448.0	8892.0	0.1188	78.72763	750.75	792.0	803.0
4456.0	8908.0	0.1188	78.72763	751.5	794.0	804.0
4465.0	8926.0	0.1189	78.7939	752.25	795.0	806.0
4474.0	8944.0	0.1188	78.72763	753.0	796.0	807.0
4484.0	8964.0	0.1188	78.72763	753.75	796.0	809.0
4493.0	8982.0	0.1188	78.72763	754.5	796.0	811.0
4506.0	9008.0	0.1188	78.72763	755.25	796.0	813.0
4514.0	9024.0	0.1188	78.72763	756.0	799.0	814.0
4522.0	9040.0	0.1188	78.72763	756.75	799.0	815.0
4535.0	9066.0	0.1188	78.72763	757.5	800.0	818.0
4552.0	9100.0	0.1188	78.72763	758.25	801.0	820.0
4563.0	9122.0	0.1187	78.66137	759.0	801.0	822.0
4575.0	9146.0	0.1187	78.66137	759.75	803.0	824.0
4584.0	9164.0	0.1187	78.66137	760.5	803.0	826.0
4602.0	9200.0	0.1187	78.66137	761.25	804.0	829.0
4620.0	9236.0	0.1187	78.66137	762.0	805.0	832.0
4635.0	9266.0	0.1186	78.5951	762.75	806.0	834.0
4650.0	9296.0	0.1186	78.5951	763.5	807.0	837.0
4666.0	9328.0	0.1186	78.5951	764.25	807.0	839.0
4683.0	9362.0	0.1186	78.5951	765.0	807.0	842.0
4704.0	9404.0	0.1186	78.5951	765.75	810.0	846.0
4727.0	9450.0	0.1187	78.66137	766.5	810.0	849.0
4756.0	9508.0	0.1186	78.5951	767.25	811.0	854.0
4776.0	9548.0	0.1186	78.5951	768.0	812.0	858.0
4798.0	9592.0	0.1186	78.5951	768.75	812.0	861.0
4829.0	9654.0	0.1185	78.52883	769.5	813.0	866.0
4861.0	9718.0	0.1186	78.5951	770.25	814.0	872.0
4897.0	9790.0	0.1185	78.52883	771.0	814.0	876.0
4956.0	9908.0	0.1186	78.5951	771.75	816.0	878.0
5072.0	10140.0	0.1185	78.52883	772.5	816.0	879.0
5145.0	10286.0	0.1185	78.52883	773.25	818.0	879.0
5186.0	10368.0	0.1185	78.52883	774.0	818.0	880.0
5910.0	11816.0	0.1185	78.52883	774.75	818.0	881.0
5967.0	11930.0	0.1185	78.52883	775.5	819.0	882.0
6034.0	12064.0	0.1185	78.52883	776.25	820.0	882.0
6134.0	12264.0	0.1185	78.52883	777.0	821.0
7623.0	15242.013	0.1188	78.72763	777.75	820.0	885.0
7706.0	15408.013	0.1188	78.72763	778.0	824.0	885.0