File: charts/20230801/TGA/SATURADAS/Cs-STD 5A.txt
05/07/2023 14:07:08
User name: Gabs
Comments: programa 3
Number	time(s)	mass(g)	Relative_mass(%)	Sample_T(C)	PV(C)	SV(C)
1.0	0.0	0.1574	99.93651	22.0	59.0	57.0
5.0	6.001	0.1569	99.61905	22.75	62.0	58.0
8.0	12.001	0.1567	99.49206	24.0	66.0	58.0
11.0	18.001	0.1566	99.42857	25.25	71.0	59.0
14.0	24.001	0.1565	99.36508	26.75	75.0	59.0
17.0	30.001	0.1566	99.42857	28.0	79.0	60.0
20.0	36.001	0.1566	99.42857	29.25	82.0	60.0
23.0	42.001	0.1566	99.42857	30.5	84.0	61.0
26.0	48.001	0.1566	99.42857	31.25	85.0	61.0
29.0	54.001	0.1566	99.42857	32.25	86.0	62.0
32.0	60.001	0.1566	99.42857	33.25	88.0	62.0
35.0	66.001	0.1566	99.42857	34.0	89.0	63.0
38.0	72.001	0.1566	99.42857	34.75	89.0	63.0
41.0	78.001	0.1566	99.42857	35.5	89.0	64.0
45.0	86.001	0.1566	99.42857	36.25	89.0	64.0
48.0	92.001	0.1566	99.42857	37.0	91.0	65.0
52.0	100.001	0.1566	99.42857	37.75	91.0	66.0
57.0	110.001	0.1565	99.36508	38.5	91.0	66.0
61.0	118.001	0.1565	99.36508	39.25	91.0	67.0
67.0	130.001	0.1565	99.36508	40.0	91.0	68.0
73.0	142.001	0.1565	99.36508	40.75	89.0	69.0
83.0	162.001	0.1564	99.30159	41.5	89.0	71.0
91.0	178.001	0.1564	99.30159	42.25	89.0	72.0
104.0	204.001	0.1564	99.30159	43.0	89.0	74.0
125.0	246.001	0.1562	99.1746	43.75	86.0	78.0
171.0	338.001	0.1559	98.98413	44.5	86.0	86.0
177.0	350.001	0.1559	98.98413	45.25	89.0	87.0
185.0	366.001	0.1558	98.92063	46.0	91.0	88.0
196.0	388.001	0.1557	98.85714	46.75	91.0	90.0
213.0	422.001	0.1557	98.85714	47.5	92.0	93.0
218.0	432.001	0.1555	98.73016	48.25	93.0	93.0
223.0	442.001	0.1555	98.73016	49.0	96.0	94.0
228.0	452.001	0.1556	98.79365	49.75	96.0	95.0
235.0	466.001	0.1555	98.73016	50.5	98.0	96.0
245.0	486.001	0.1554	98.66667	51.25	99.0	98.0
258.0	512.001	0.1553	98.60317	52.0	99.0	100.0
263.0	522.001	0.1552	98.53968	52.75	100.0	101.0
269.0	534.001	0.155	98.4127	53.75	103.0	102.0
273.0	542.001	0.1551	98.47619	54.5	104.0	103.0
279.0	554.001	0.155	98.4127	55.25	106.0	104.0
286.0	568.001	0.155	98.4127	56.0	106.0	105.0
293.0	582.001	0.1549	98.34921	56.75	106.0	106.0
301.0	598.001	0.1548	98.28571	57.5	106.0	107.0
308.0	612.001	0.1548	98.28571	58.25	108.0	109.0
313.0	622.001	0.1548	98.28571	59.25	110.0	109.0
318.0	632.001	0.1549	98.34921	60.0	111.0	110.0
323.0	642.001	0.1548	98.28571	60.75	112.0	111.0
331.0	658.001	0.1546	98.15873	61.5	112.0	112.0
338.0	672.001	0.1546	98.15873	62.25	114.0	114.0
345.0	686.001	0.1546	98.15873	63.0	114.0	115.0
350.0	696.001	0.1549	98.34921	63.75	115.0	116.0
354.0	704.001	0.1544	98.03175	64.5	116.0	116.0
359.0	714.001	0.1543	97.96825	65.25	116.0	117.0
363.0	722.001	0.1542	97.90476	66.0	118.0	118.0
369.0	734.001	0.1542	97.90476	66.75	119.0	119.0
376.0	748.001	0.1542	97.90476	67.5	119.0	120.0
382.0	760.001	0.1542	97.90476	68.25	120.0	121.0
386.0	768.001	0.1542	97.90476	69.0	122.0	122.0
391.0	778.001	0.1542	97.90476	69.75	123.0	122.0
397.0	790.001	0.154	97.77778	70.5	123.0	123.0
404.0	804.001	0.1539	97.71429	71.25	124.0	125.0
409.0	814.001	0.1539	97.71429	72.0	125.0	125.0
414.0	824.001	0.1539	97.71429	72.75	127.0	126.0
418.0	832.001	0.1538	97.65079	73.5	128.0	127.0
425.0	846.001	0.154	97.77778	74.25	128.0	128.0
431.0	858.001	0.1538	97.65079	75.0	129.0	129.0
437.0	870.001	0.1537	97.5873	75.75	129.0	130.0
443.0	882.001	0.1534	97.39683	76.5	131.0	131.0
449.0	894.001	0.1535	97.46032	77.25	132.0	132.0
455.0	906.001	0.1535	97.46032	78.0	133.0	133.0
460.0	916.001	0.1535	97.46032	78.75	133.0	134.0
465.0	926.001	0.1533	97.33333	79.5	134.0	135.0
469.0	934.001	0.1532	97.26984	80.25	136.0	135.0
474.0	944.001	0.1533	97.33333	81.0	137.0	136.0
479.0	954.001	0.1532	97.26984	81.75	138.0	137.0
487.0	970.001	0.1531	97.20635	82.5	138.0	138.0
494.0	984.001	0.153	97.14286	83.25	138.0	140.0
498.0	992.001	0.153	97.14286	84.0	140.0	140.0
502.0	1000.001	0.153	97.14286	84.75	141.0	141.0
507.0	1010.001	0.153	97.14286	85.5	142.0	142.0
514.0	1024.001	0.1529	97.07937	86.25	142.0	143.0
520.0	1036.001	0.1528	97.01587	87.25	145.0	144.0
525.0	1046.001	0.1528	97.01587	88.0	145.0	145.0
531.0	1058.001	0.1528	97.01587	88.75	146.0	146.0
539.0	1074.001	0.1528	97.01587	89.5	146.0	147.0
544.0	1084.001	0.1527	96.95238	90.25	147.0	148.0
548.0	1092.001	0.1526	96.88889	91.0	148.0	149.0
552.0	1100.001	0.1526	96.88889	91.75	150.0	149.0
557.0	1110.001	0.1525	96.8254	92.5	151.0	150.0
563.0	1122.001	0.1524	96.7619	93.25	152.0	151.0
570.0	1136.001	0.1523	96.69841	94.0	152.0	152.0
576.0	1148.001	0.1523	96.69841	94.75	153.0	153.0
580.0	1156.001	0.1522	96.63492	95.5	155.0	154.0
584.0	1164.001	0.1522	96.63492	96.25	156.0	155.0
590.0	1176.001	0.1523	96.69841	97.25	157.0	156.0
597.0	1190.001	0.1521	96.57143	98.0	157.0	157.0
604.0	1204.001	0.152	96.50794	98.75	157.0	158.0
609.0	1214.001	0.152	96.50794	99.5	158.0	159.0
613.0	1222.001	0.1519	96.44444	100.25	159.0	160.0
617.0	1230.001	0.1519	96.44444	101.0	161.0	160.0
622.0	1240.001	0.1518	96.38095	101.75	162.0	161.0
628.0	1252.001	0.1517	96.31746	102.5	162.0	162.0
635.0	1266.001	0.1517	96.31746	103.25	163.0	163.0
641.0	1278.001	0.1516	96.25397	104.0	163.0	164.0
645.0	1286.001	0.1515	96.19048	104.75	164.0	165.0
649.0	1294.001	0.1515	96.19048	105.5	167.0	166.0
653.0	1302.001	0.1515	96.19048	106.25	167.0	166.0
657.0	1310.001	0.1514	96.12698	107.0	168.0	167.0
665.0	1326.001	0.1514	96.12698	107.75	168.0	168.0
671.0	1338.001	0.1514	96.12698	108.5	169.0	169.0
676.0	1348.001	0.1513	96.06349	109.25	171.0	170.0
682.0	1360.001	0.1514	96.12698	110.25	172.0	171.0
687.0	1370.001	0.1514	96.12698	111.0	172.0	172.0
694.0	1384.001	0.1511	95.93651	111.75	173.0	173.0
700.0	1396.001	0.1511	95.93651	112.5	173.0	174.0
704.0	1404.001	0.1511	95.93651	113.25	174.0	175.0
708.0	1412.001	0.151	95.87302	114.0	177.0	175.0
713.0	1422.001	0.151	95.87302	115.0	178.0	176.0
720.0	1436.001	0.1508	95.74603	115.75	178.0	177.0
728.0	1452.001	0.1508	95.74603	116.75	178.0	179.0
732.0	1460.001	0.1507	95.68254	117.25	179.0	179.0
739.0	1474.001	0.1506	95.61905	118.25	182.0	181.0
743.0	1482.001	0.1505	95.55556	119.0	183.0	181.0
748.0	1492.001	0.1505	95.55556	119.75	183.0	182.0
756.0	1508.001	0.1505	95.55556	120.5	183.0	184.0
762.0	1520.001	0.1504	95.49206	121.25	184.0	185.0
766.0	1528.001	0.1503	95.42857	122.0	185.0	185.0
771.0	1538.001	0.1502	95.36508	122.75	186.0	186.0
776.0	1548.001	0.1502	95.36508	123.5	188.0	187.0
781.0	1558.001	0.1502	95.36508	124.25	188.0	188.0
788.0	1572.001	0.1502	95.36508	125.0	189.0	189.0
796.0	1588.001	0.1501	95.30159	125.75	189.0	190.0
800.0	1596.001	0.15	95.2381	126.75	190.0	191.0
804.0	1604.001	0.1499	95.1746	127.5	192.0	192.0
807.0	1610.001	0.1499	95.1746	128.25	194.0	192.0
811.0	1618.001	0.1498	95.11111	129.0	194.0	193.0
816.0	1628.001	0.1498	95.11111	129.75	195.0	194.0
827.0	1650.001	0.1497	95.04762	130.5	195.0	195.0
833.0	1662.001	0.1497	95.04762	131.25	196.0	196.0
837.0	1670.001	0.1496	94.98413	132.25	197.0	197.0
840.0	1676.001	0.1496	94.98413	133.0	199.0	198.0
844.0	1684.001	0.1496	94.98413	133.75	200.0	198.0
850.0	1696.001	0.1495	94.92063	134.5	200.0	199.0
858.0	1712.001	0.1493	94.79365	135.25	200.0	201.0
864.0	1724.001	0.1493	94.79365	136.0	201.0	202.0
868.0	1732.001	0.1492	94.73016	136.75	202.0	202.0
871.0	1738.001	0.1492	94.73016	137.5	203.0	203.0
875.0	1746.001	0.1491	94.66667	138.25	204.0	203.0
880.0	1756.001	0.149	94.60317	139.0	204.0	204.0
886.0	1768.001	0.1489	94.53968	139.75	206.0	205.0
895.0	1786.001	0.1489	94.53968	140.5	206.0	207.0
900.0	1796.001	0.1488	94.47619	141.25	207.0	208.0
904.0	1804.001	0.1488	94.47619	142.0	208.0	208.0
909.0	1814.001	0.1487	94.4127	142.75	209.0	209.0
913.0	1822.001	0.1486	94.34921	143.5	210.0	210.0
917.0	1830.001	0.1486	94.34921	144.25	211.0	210.0
922.0	1840.001	0.1486	94.34921	145.0	213.0	211.0
928.0	1852.001	0.1485	94.28571	145.75	213.0	212.0
935.0	1869.981	0.1482	94.09524	146.5	213.0	214.0
939.0	1877.981	0.1481	94.03175	147.25	214.0	214.0
943.0	1885.981	0.1481	94.03175	148.0	215.0	215.0
947.0	1893.981	0.1481	94.03175	148.75	216.0	216.0
951.0	1901.981	0.1481	94.03175	149.5	217.0	216.0
957.0	1913.981	0.148	93.96825	150.25	217.0	217.0
963.0	1925.981	0.1479	93.90476	151.0	218.0	218.0
967.0	1933.981	0.1479	93.90476	151.75	219.0	219.0
973.0	1945.981	0.1478	93.84127	152.75	221.0	220.0
979.0	1957.981	0.1477	93.77778	153.5	221.0	221.0
984.0	1967.981	0.1476	93.71429	154.25	222.0	222.0
990.0	1979.981	0.1475	93.65079	155.0	223.0	223.0
994.0	1987.981	0.1475	93.65079	155.75	224.0	224.0
1000.0	1999.981	0.1474	93.5873	156.5	225.0	225.0
1004.0	2007.981	0.1474	93.5873	157.25	225.0	225.0
1008.0	2015.981	0.1474	93.5873	158.0	226.0	226.0
1012.0	2023.981	0.1473	93.52381	158.75	227.0	227.0
1017.0	2033.981	0.1471	93.39683	159.5	229.0	228.0
1022.0	2043.981	0.147	93.33333	160.25	229.0	228.0
1031.0	2061.981	0.1469	93.26984	161.0	230.0	230.0
1037.0	2073.981	0.1467	93.14286	161.75	231.0	231.0
1041.0	2081.981	0.1466	93.07937	162.5	231.0	232.0
1045.0	2089.981	0.1465	93.01587	163.25	232.0	232.0
1050.0	2099.981	0.1465	93.01587	164.0	233.0	233.0
1054.0	2107.981	0.1465	93.01587	164.75	234.0	234.0
1059.0	2117.981	0.1464	92.95238	165.5	234.0	235.0
1064.0	2127.981	0.1463	92.88889	166.25	235.0	235.0
1069.0	2137.981	0.1461	92.7619	167.0	237.0	236.0
1075.0	2149.981	0.146	92.69841	167.75	238.0	237.0
1082.0	2163.981	0.146	92.69841	168.5	238.0	238.0
1088.0	2175.981	0.1458	92.57143	169.25	239.0	239.0
1092.0	2183.981	0.1457	92.50794	170.0	240.0	240.0
1096.0	2191.981	0.1456	92.44444	170.75	241.0	241.0
1100.0	2199.981	0.1454	92.31746	171.5	242.0	241.0
1104.0	2207.981	0.1454	92.31746	172.25	242.0	242.0
1109.0	2217.981	0.1453	92.25397	173.0	243.0	243.0
1114.0	2227.981	0.1452	92.19048	173.75	245.0	244.0
1118.0	2235.981	0.1452	92.19048	174.5	245.0	244.0
1126.0	2251.981	0.145	92.06349	175.25	246.0	246.0
1132.0	2263.981	0.1448	91.93651	176.0	246.0	247.0
1136.0	2271.981	0.1447	91.87302	176.75	247.0	247.0
1141.0	2281.981	0.1445	91.74603	177.5	248.0	248.0
1144.0	2287.981	0.1444	91.68254	178.25	249.0	249.0
1148.0	2295.981	0.1443	91.61905	179.0	250.0	249.0
1153.0	2305.981	0.1443	91.61905	179.75	250.0	250.0
1158.0	2315.981	0.1442	91.55556	180.5	251.0	251.0
1164.0	2327.981	0.1438	91.30159	181.5	252.0	252.0
1167.0	2333.981	0.1438	91.30159	182.25	254.0	253.0
1173.0	2345.981	0.1438	91.30159	183.0	254.0	254.0
1181.0	2361.981	0.1436	91.1746	183.75	254.0	255.0
1185.0	2369.981	0.1435	91.11111	184.5	256.0	256.0
1189.0	2377.981	0.1434	91.04762	185.25	256.0	256.0
1193.0	2385.981	0.1433	90.98413	186.0	257.0	257.0
1198.0	2395.981	0.1431	90.85714	186.75	258.0	258.0
1203.0	2405.981	0.143	90.79365	187.5	258.0	259.0
1208.0	2415.981	0.1429	90.73016	188.25	259.0	259.0
1211.0	2421.981	0.1428	90.66667	189.0	260.0	260.0
1216.0	2431.981	0.1428	90.66667	189.75	261.0	261.0
1220.0	2439.981	0.1426	90.53968	190.5	263.0	262.0
1225.0	2449.981	0.1425	90.47619	191.25	263.0	262.0
1233.0	2465.981	0.1423	90.34921	192.0	263.0	264.0
1238.0	2475.981	0.1421	90.22222	192.75	264.0	265.0
1242.0	2483.981	0.142	90.15873	193.5	265.0	265.0
1245.0	2489.981	0.1419	90.09524	194.25	266.0	266.0
1249.0	2497.981	0.1418	90.03175	195.0	266.0	266.0
1254.0	2507.981	0.1416	89.90476	195.75	267.0	267.0
1259.0	2517.981	0.1415	89.84127	196.5	268.0	268.0
1263.0	2525.981	0.1414	89.77778	197.25	268.0	269.0
1268.0	2535.981	0.1413	89.71429	198.0	270.0	270.0
1273.0	2545.981	0.1412	89.65079	198.75	270.0	270.0
1277.0	2553.981	0.1411	89.5873	199.5	271.0	271.0
1281.0	2561.981	0.1409	89.46032	200.25	273.0	272.0
1289.0	2577.981	0.1407	89.33333	201.0	273.0	273.0
1298.0	2595.981	0.1405	89.20635	201.75	274.0	275.0
1301.0	2601.981	0.1403	89.07937	202.5	275.0	275.0
1305.0	2609.981	0.1402	89.01587	203.25	276.0	276.0
1308.0	2615.981	0.1401	88.95238	204.0	277.0	276.0
1314.0	2627.981	0.1399	88.8254	204.75	278.0	277.0
1319.0	2637.981	0.1397	88.69841	205.5	278.0	278.0
1324.0	2647.981	0.1396	88.63492	206.25	279.0	279.0
1329.0	2657.981	0.1394	88.50794	207.0	280.0	280.0
1334.0	2667.981	0.1393	88.44444	207.75	280.0	281.0
1339.0	2677.981	0.1391	88.31746	208.5	281.0	281.0
1344.0	2687.981	0.139	88.25397	209.25	283.0	282.0
1352.0	2703.981	0.1388	88.12698	210.0	283.0	284.0
1358.0	2715.981	0.1386	88.0	211.0	284.0	285.0
1362.0	2723.981	0.1384	87.87302	211.75	285.0	285.0
1366.0	2731.981	0.1383	87.80952	212.5	286.0	286.0
1371.0	2741.981	0.1382	87.74603	213.25	287.0	287.0
1375.0	2749.981	0.138	87.61905	214.0	287.0	287.0
1381.0	2761.981	0.1378	87.49206	214.75	288.0	288.0
1384.0	2767.981	0.1377	87.42857	215.5	289.0	289.0
1389.0	2777.981	0.1375	87.30159	216.25	290.0	290.0
1393.0	2785.981	0.1374	87.2381	217.0	290.0	290.0
1397.0	2793.981	0.1373	87.1746	217.75	291.0	291.0
1401.0	2801.981	0.1372	87.11111	218.5	293.0	292.0
1406.0	2811.981	0.1371	87.04762	219.25	293.0	293.0
1413.0	2825.981	0.1369	86.92063	220.0	294.0	294.0
1420.0	2839.981	0.1366	86.73016	220.75	294.0	295.0
1426.0	2851.981	0.1364	86.60317	222.0	296.0	296.0
1430.0	2859.981	0.1363	86.53968	222.75	297.0	297.0
1434.0	2867.981	0.1362	86.47619	223.5	297.0	297.0
1439.0	2877.981	0.136	86.34921	224.25	298.0	298.0
1445.0	2889.981	0.1359	86.28571	225.0	299.0	299.0
1449.0	2897.981	0.1358	86.22222	225.75	300.0	300.0
1452.0	2903.981	0.1357	86.15873	226.5	301.0	300.0
1457.0	2913.981	0.1355	86.03175	227.5	301.0	301.0
1462.0	2923.981	0.1354	85.96825	228.25	302.0	302.0
1466.0	2931.981	0.1353	85.90476	229.0	304.0	303.0
1473.0	2945.981	0.1351	85.77778	229.75	304.0	304.0
1479.0	2957.981	0.1349	85.65079	230.5	304.0	305.0
1484.0	2967.981	0.1347	85.52381	231.25	305.0	306.0
1487.0	2973.981	0.1347	85.52381	232.0	306.0	306.0
1491.0	2981.981	0.1345	85.39683	232.75	307.0	307.0
1496.0	2991.981	0.1344	85.33333	233.75	308.0	308.0
1501.0	3001.981	0.1343	85.26984	234.5	309.0	309.0
1505.0	3009.981	0.1342	85.20635	235.25	309.0	309.0
1509.0	3017.981	0.1341	85.14286	236.0	310.0	310.0
1513.0	3025.981	0.1339	85.01587	236.75	311.0	311.0
1518.0	3035.981	0.1338	84.95238	237.5	312.0	311.0
1522.0	3043.981	0.1337	84.88889	238.25	312.0	312.0
1526.0	3051.981	0.1336	84.8254	239.0	313.0	313.0
1531.0	3061.981	0.1335	84.7619	239.75	314.0	314.0
1535.0	3069.981	0.1334	84.69841	240.5	314.0	314.0
1539.0	3077.981	0.1334	84.69841	241.25	316.0	315.0
1543.0	3085.981	0.1333	84.63492	242.0	316.0	316.0
1550.0	3099.981	0.1332	84.57143	242.75	317.0	317.0
1555.0	3109.981	0.133	84.44444	243.5	317.0	318.0
1559.0	3117.981	0.1329	84.38095	244.25	318.0	318.0
1563.0	3125.981	0.1328	84.31746	245.0	319.0	319.0
1567.0	3133.981	0.1327	84.25397	245.75	319.0	320.0
1573.0	3145.981	0.1326	84.19048	246.75	321.0	321.0
1577.0	3153.981	0.1325	84.12698	247.5	321.0	321.0
1581.0	3161.981	0.1324	84.06349	248.25	322.0	322.0
1585.0	3169.981	0.1324	84.06349	249.0	323.0	323.0
1588.0	3175.981	0.1323	84.0	249.75	323.0	323.0
1592.0	3183.981	0.1323	84.0	250.5	324.0	324.0
1598.0	3195.981	0.1322	83.93651	251.5	325.0	325.0
1603.0	3205.981	0.1321	83.87302	252.25	326.0	326.0
1607.0	3213.981	0.132	83.80952	253.0	326.0	326.0
1612.0	3223.981	0.1319	83.74603	253.75	327.0	327.0
1615.0	3229.981	0.1319	83.74603	254.5	329.0	328.0
1619.0	3237.981	0.1318	83.68254	255.25	329.0	328.0
1628.0	3255.981	0.1317	83.61905	256.0	329.0	330.0
1632.0	3263.981	0.1316	83.55556	256.75	330.0	330.0
1636.0	3271.981	0.1316	83.55556	257.5	331.0	331.0
1640.0	3279.981	0.1315	83.49206	258.25	332.0	332.0
1643.0	3285.981	0.1315	83.49206	259.0	333.0	332.0
1648.0	3295.981	0.1314	83.42857	259.75	333.0	333.0
1652.0	3303.981	0.1314	83.42857	260.5	334.0	334.0
1657.0	3313.981	0.1313	83.36508	261.25	335.0	335.0
1661.0	3321.982	0.1313	83.36508	262.0	335.0	335.0
1665.0	3329.982	0.1313	83.36508	262.75	336.0	336.0
1669.0	3337.982	0.1313	83.36508	263.5	336.0	337.0
1673.0	3345.982	0.1312	83.30159	264.25	337.0	337.0
1677.0	3353.982	0.1312	83.30159	265.0	338.0	338.0
1682.0	3363.982	0.1311	83.2381	265.75	339.0	339.0
1686.0	3371.982	0.1311	83.2381	266.5	339.0	340.0
1690.0	3379.982	0.131	83.1746	267.25	340.0	340.0
1694.0	3387.982	0.131	83.1746	268.0	341.0	341.0
1698.0	3395.982	0.1308	83.04762	268.75	343.0	342.0
1704.0	3407.982	0.1307	82.98413	269.5	343.0	343.0
1712.0	3423.982	0.1308	83.04762	270.25	343.0	344.0
1716.0	3431.982	0.1306	82.92063	271.25	345.0	345.0
1720.0	3439.982	0.1306	82.92063	272.25	346.0	345.0
1724.0	3447.982	0.1306	82.92063	273.0	346.0	346.0
1730.0	3459.982	0.1306	82.92063	273.75	347.0	347.0
1735.0	3469.982	0.1306	82.92063	274.75	348.0	348.0
1739.0	3477.982	0.1305	82.85714	275.5	348.0	348.0
1743.0	3485.982	0.1305	82.85714	276.25	349.0	349.0
1748.0	3495.982	0.1305	82.85714	277.0	350.0	350.0
1753.0	3505.982	0.1305	82.85714	277.75	350.0	351.0
1757.0	3513.982	0.1304	82.79365	278.5	351.0	351.0
1761.0	3521.982	0.1304	82.79365	279.25	352.0	352.0
1764.0	3527.982	0.1304	82.79365	280.0	353.0	353.0
1768.0	3535.982	0.1303	82.73016	280.75	354.0	353.0
1773.0	3545.982	0.1303	82.73016	281.5	354.0	354.0
1778.0	3555.982	0.1302	82.66667	282.25	354.0	355.0
1782.0	3563.982	0.1302	82.66667	283.0	355.0	356.0
1785.0	3569.982	0.1302	82.66667	283.75	356.0	356.0
1788.0	3575.982	0.1302	82.66667	284.5	357.0	357.0
1791.0	3581.982	0.1301	82.60317	285.25	357.0	357.0
1796.0	3591.982	0.1301	82.60317	286.0	359.0	358.0
1806.0	3611.982	0.1301	82.60317	286.75	359.0	360.0
1809.0	3617.982	0.13	82.53968	287.5	360.0	360.0
1812.0	3623.982	0.1301	82.60317	288.25	361.0	361.0
1816.0	3631.982	0.13	82.53968	289.0	362.0	361.0
1826.0	3651.982	0.13	82.53968	289.75	362.0	363.0
1830.0	3659.983	0.13	82.53968	290.5	363.0	364.0
1834.0	3667.983	0.1299	82.47619	291.75	364.0	364.0
1837.0	3673.983	0.1299	82.47619	292.5	365.0	365.0
1841.0	3681.983	0.1298	82.4127	293.5	366.0	365.0
1847.0	3693.983	0.1298	82.4127	294.25	366.0	366.0
1852.0	3703.983	0.1298	82.4127	295.0	367.0	367.0
1856.0	3711.983	0.1297	82.34921	295.75	368.0	368.0
1859.0	3717.983	0.1297	82.34921	296.5	369.0	368.0
1863.0	3725.983	0.1297	82.34921	297.25	369.0	369.0
1867.0	3733.983	0.1297	82.34921	298.0	370.0	370.0
1871.0	3741.983	0.1296	82.28571	298.75	370.0	370.0
1875.0	3749.983	0.1297	82.34921	299.5	371.0	371.0
1879.0	3757.983	0.1297	82.34921	300.25	372.0	372.0
1883.0	3765.983	0.1297	82.34921	301.0	372.0	372.0
1887.0	3773.983	0.1296	82.28571	301.75	373.0	373.0
1891.0	3781.983	0.1296	82.28571	302.5	374.0	374.0
1896.0	3791.983	0.1295	82.22222	303.25	374.0	375.0
1899.0	3797.983	0.1296	82.28571	304.0	375.0	375.0
1903.0	3805.983	0.1295	82.22222	304.75	377.0	376.0
1913.0	3825.983	0.1294	82.15873	305.5	377.0	378.0
1917.0	3833.983	0.1294	82.15873	306.5	378.0	378.0
1920.0	3839.983	0.1294	82.15873	307.25	379.0	379.0
1924.0	3847.983	0.1294	82.15873	308.0	380.0	379.0
1932.0	3863.983	0.1294	82.15873	308.75	380.0	381.0
1936.0	3871.983	0.1294	82.15873	309.5	381.0	381.0
1939.0	3877.983	0.1294	82.15873	310.25	382.0	382.0
1942.0	3883.983	0.1294	82.15873	311.0	382.0	382.0
1947.0	3893.983	0.1294	82.15873	312.0	383.0	383.0
1951.0	3901.983	0.1294	82.15873	312.75	384.0	384.0
1955.0	3909.983	0.1293	82.09524	313.5	385.0	385.0
1959.0	3917.983	0.1293	82.09524	314.25	385.0	385.0
1963.0	3925.983	0.1293	82.09524	315.0	386.0	386.0
1967.0	3933.983	0.1292	82.03175	315.75	386.0	387.0
1971.0	3941.984	0.1292	82.03175	316.5	387.0	387.0
1974.0	3947.984	0.1292	82.03175	317.25	388.0	388.0
1980.0	3959.984	0.1293	82.09524	318.25	388.0	389.0
1984.0	3967.984	0.1292	82.03175	319.0	389.0	389.0
1988.0	3975.984	0.1292	82.03175	319.75	390.0	390.0
1992.0	3983.984	0.1292	82.03175	320.5	390.0	391.0
1995.0	3989.984	0.1292	82.03175	321.25	391.0	391.0
1999.0	3997.984	0.1292	82.03175	322.0	392.0	392.0
2004.0	4007.984	0.1292	82.03175	322.75	392.0	393.0
2007.0	4013.984	0.1292	82.03175	323.5	393.0	393.0
2012.0	4023.984	0.1292	82.03175	324.25	394.0	394.0
2016.0	4031.984	0.1287	81.71429	325.0	394.0	395.0
2020.0	4039.984	0.1289	81.84127	325.75	395.0	395.0
2024.0	4047.984	0.129	81.90476	326.5	396.0	396.0
2027.0	4053.984	0.1291	81.96825	327.25	398.0	397.0
2037.0	4073.984	0.1291	81.96825	328.0	396.0	398.0
2041.0	4081.984	0.129	81.90476	328.75	399.0	399.0
2044.0	4087.984	0.129	81.90476	329.5	400.0	399.0
2048.0	4095.984	0.129	81.90476	330.5	400.0	400.0
2053.0	4105.984	0.129	81.90476	331.25	401.0	401.0
2058.0	4115.984	0.129	81.90476	332.0	402.0	402.0
2062.0	4123.984	0.1288	81.77778	332.75	402.0	402.0
2066.0	4131.984	0.1289	81.84127	333.5	403.0	403.0
2070.0	4139.984	0.1289	81.84127	334.5	404.0	404.0
2075.0	4149.984	0.1289	81.84127	335.25	405.0	405.0
2079.0	4157.984	0.129	81.90476	336.0	405.0	405.0
2083.0	4165.984	0.129	81.90476	336.75	406.0	406.0
2087.0	4173.984	0.1289	81.84127	337.5	407.0	407.0
2091.0	4181.984	0.1289	81.84127	338.25	407.0	407.0
2095.0	4189.984	0.1289	81.84127	339.0	408.0	408.0
2099.0	4197.984	0.1288	81.77778	339.75	409.0	409.0
2103.0	4205.984	0.1288	81.77778	340.5	409.0	409.0
2107.0	4213.984	0.1287	81.71429	341.25	410.0	410.0
2111.0	4221.985	0.1287	81.71429	342.0	411.0	411.0
2115.0	4229.985	0.1287	81.71429	342.75	411.0	411.0
2119.0	4237.985	0.1287	81.71429	343.5	412.0	412.0
2123.0	4245.985	0.1287	81.71429	344.25	413.0	413.0
2128.0	4255.985	0.1287	81.71429	345.25	413.0	414.0
2133.0	4265.985	0.1287	81.71429	346.0	414.0	414.0
2136.0	4271.985	0.1287	81.71429	346.75	415.0	415.0
2140.0	4279.985	0.1287	81.71429	347.5	416.0	416.0
2144.0	4287.985	0.1288	81.77778	348.25	416.0	416.0
2149.0	4297.985	0.1287	81.71429	349.0	416.0	417.0
2152.0	4303.985	0.1287	81.71429	349.75	417.0	418.0
2155.0	4309.985	0.1287	81.71429	350.5	418.0	418.0
2159.0	4317.985	0.1287	81.71429	351.25	419.0	419.0
2164.0	4327.985	0.1286	81.65079	352.0	419.0	420.0
2168.0	4335.985	0.1286	81.65079	352.75	420.0	420.0
2171.0	4341.985	0.1286	81.65079	353.5	421.0	421.0
2175.0	4349.985	0.1286	81.65079	354.25	422.0	421.0
2179.0	4357.985	0.1286	81.65079	355.0	422.0	422.0
2183.0	4365.985	0.1286	81.65079	355.75	424.0	423.0
2195.0	4389.985	0.1286	81.65079	356.5	424.0	425.0
2200.0	4399.985	0.1286	81.65079	357.25	425.0	426.0
2203.0	4405.985	0.1286	81.65079	358.25	426.0	426.0
2207.0	4413.985	0.1285	81.5873	359.25	427.0	427.0
2212.0	4423.985	0.1285	81.5873	360.0	427.0	428.0
2215.0	4429.985	0.1285	81.5873	360.75	428.0	428.0
2219.0	4437.985	0.1286	81.65079	361.5	429.0	429.0
2223.0	4445.985	0.1286	81.65079	362.25	429.0	429.0
2227.0	4453.985	0.1285	81.5873	363.0	430.0	430.0
2231.0	4461.985	0.1285	81.5873	363.75	430.0	431.0
2235.0	4469.985	0.1286	81.65079	364.5	432.0	431.0
2239.0	4477.985	0.1285	81.5873	365.25	432.0	432.0
2243.0	4485.985	0.1285	81.5873	366.0	433.0	433.0
2247.0	4493.987	0.1283	81.46032	366.75	433.0	433.0
2251.0	4501.987	0.1284	81.52381	367.5	434.0	434.0
2255.0	4509.988	0.1284	81.52381	368.5	435.0	435.0
2260.0	4519.989	0.1284	81.52381	369.25	435.0	436.0
2265.0	4529.989	0.1283	81.46032	370.0	436.0	436.0
2268.0	4535.989	0.1284	81.52381	370.75	437.0	437.0
2272.0	4543.989	0.1284	81.52381	371.5	437.0	438.0
2276.0	4551.989	0.1283	81.46032	372.25	438.0	438.0
2281.0	4561.989	0.1283	81.46032	373.0	439.0	439.0
2284.0	4567.989	0.1283	81.46032	373.75	439.0	440.0
2288.0	4575.989	0.1283	81.46032	374.5	440.0	440.0
2293.0	4585.989	0.1283	81.46032	375.5	441.0	441.0
2298.0	4595.989	0.1284	81.52381	376.25	442.0	442.0
2302.0	4603.989	0.1283	81.46032	377.0	443.0	443.0
2306.0	4611.989	0.1284	81.52381	377.75	443.0	443.0
2310.0	4619.989	0.1283	81.46032	378.5	444.0	444.0
2314.0	4627.989	0.1283	81.46032	379.25	444.0	445.0
2318.0	4635.989	0.1283	81.46032	380.0	445.0	445.0
2321.0	4641.989	0.1284	81.52381	380.75	446.0	446.0
2325.0	4649.989	0.1284	81.52381	381.5	447.0	446.0
2329.0	4657.989	0.1284	81.52381	382.25	447.0	447.0
2333.0	4665.989	0.1284	81.52381	383.0	448.0	448.0
2338.0	4675.989	0.1284	81.52381	383.75	448.0	449.0
2342.0	4683.989	0.1284	81.52381	384.5	449.0	449.0
2347.0	4693.989	0.1283	81.46032	385.25	450.0	450.0
2351.0	4701.989	0.1283	81.46032	386.0	450.0	451.0
2355.0	4709.989	0.1283	81.46032	387.0	452.0	452.0
2360.0	4719.989	0.1283	81.46032	388.0	452.0	452.0
2364.0	4727.989	0.1283	81.46032	388.75	452.0	453.0
2368.0	4735.99	0.1282	81.39683	389.5	453.0	454.0
2371.0	4741.99	0.1282	81.39683	390.25	454.0	454.0
2376.0	4751.99	0.1282	81.39683	391.25	455.0	455.0
2381.0	4761.991	0.1282	81.39683	392.0	456.0	456.0
2387.0	4773.992	0.1282	81.39683	392.75	456.0	457.0
2392.0	4783.992	0.1282	81.39683	394.0	457.0	458.0
2397.0	4793.992	0.1282	81.39683	395.0	459.0	459.0
2401.0	4801.992	0.1282	81.39683	395.75	459.0	459.0
2407.0	4813.992	0.1283	81.46032	396.5	461.0	460.0
2415.0	4829.992	0.1282	81.39683	397.25	461.0	462.0
2420.0	4839.995	0.1282	81.39683	398.0	462.0	462.0
2423.0	4845.996	0.1281	81.33333	398.75	463.0	463.0
2427.0	4853.997	0.1281	81.33333	399.5	464.0	464.0
2430.0	4859.997	0.1281	81.33333	400.25	464.0	464.0
2435.0	4869.997	0.1282	81.39683	401.0	465.0	465.0
2439.0	4877.997	0.1281	81.33333	401.75	465.0	466.0
2442.0	4883.997	0.1281	81.33333	402.5	466.0	466.0
2446.0	4891.997	0.1281	81.33333	403.25	467.0	467.0
2450.0	4899.997	0.128	81.26984	404.0	467.0	467.0
2456.0	4911.997	0.128	81.26984	404.75	468.0	468.0
2460.0	4919.998	0.128	81.26984	405.5	469.0	469.0
2464.0	4927.998	0.128	81.26984	406.25	469.0	470.0
2468.0	4936.0	0.128	81.26984	407.25	470.0	470.0
2473.0	4946.001	0.128	81.26984	408.25	471.0	471.0
2477.0	4954.001	0.128	81.26984	409.0	472.0	472.0
2482.0	4964.001	0.1281	81.33333	409.75	472.0	473.0
2485.0	4970.001	0.1281	81.33333	410.5	473.0	473.0
2488.0	4976.001	0.1281	81.33333	411.25	474.0	474.0
2492.0	4984.001	0.1281	81.33333	412.0	475.0	474.0
2498.0	4996.001	0.128	81.26984	412.75	475.0	475.0
2503.0	5006.001	0.128	81.26984	413.5	476.0	476.0
2506.0	5012.002	0.128	81.26984	414.25	476.0	477.0
2509.0	5018.002	0.128	81.26984	415.0	477.0	477.0
2512.0	5024.003	0.128	81.26984	415.75	478.0	478.0
2517.0	5034.003	0.128	81.26984	416.5	478.0	479.0
2520.0	5040.005	0.1281	81.33333	417.25	479.0	479.0
2525.0	5050.006	0.1279	81.20635	418.0	480.0	480.0
2529.0	5058.006	0.1279	81.20635	418.75	480.0	481.0
2534.0	5068.006	0.1279	81.20635	420.0	481.0	481.0
2538.0	5076.006	0.1278	81.14286	420.75	482.0	482.0
2543.0	5086.006	0.1278	81.14286	421.5	483.0	483.0
2549.0	5098.006	0.1278	81.14286	422.5	483.0	484.0
2553.0	5106.006	0.1279	81.20635	423.25	484.0	485.0
2557.0	5114.006	0.1279	81.20635	424.25	485.0	485.0
2563.0	5126.006	0.1279	81.20635	425.0	486.0	486.0
2566.0	5132.007	0.1279	81.20635	425.75	486.0	487.0
2570.0	5140.007	0.1279	81.20635	426.5	487.0	488.0
2573.0	5146.007	0.1279	81.20635	427.25	488.0	488.0
2578.0	5156.007	0.1278	81.14286	428.25	489.0	489.0
2583.0	5166.007	0.1279	81.20635	429.0	490.0	490.0
2589.0	5178.007	0.1279	81.20635	429.75	490.0	491.0
2592.0	5184.007	0.1278	81.14286	430.5	491.0	491.0
2596.0	5192.008	0.1278	81.14286	431.25	492.0	492.0
2600.0	5200.008	0.1278	81.14286	432.25	493.0	493.0
2604.0	5208.008	0.1278	81.14286	433.0	493.0	493.0
2609.0	5218.008	0.1279	81.20635	433.75	494.0	494.0
2613.0	5226.008	0.128	81.26984	434.5	495.0	495.0
2618.0	5236.012	0.1279	81.20635	435.5	496.0	496.0
2622.0	5244.012	0.1279	81.20635	436.25	496.0	496.0
2627.0	5254.012	0.1278	81.14286	437.25	497.0	497.0
2632.0	5264.012	0.1278	81.14286	438.0	498.0	498.0
2636.0	5272.012	0.1278	81.14286	438.75	498.0	499.0
2641.0	5282.012	0.1278	81.14286	439.75	499.0	499.0
2645.0	5290.012	0.1278	81.14286	440.5	500.0	500.0
2649.0	5298.012	0.1277	81.07937	441.25	501.0	501.0
2652.0	5304.012	0.1277	81.07937	442.0	501.0	501.0
2656.0	5312.012	0.1277	81.07937	442.75	502.0	502.0
2661.0	5322.012	0.1278	81.14286	443.5	503.0	503.0
2666.0	5332.012	0.1277	81.07937	444.25	504.0	504.0
2670.0	5340.012	0.1276	81.01587	445.0	504.0	504.0
2674.0	5348.012	0.1277	81.07937	445.75	505.0	505.0
2677.0	5354.012	0.1277	81.07937	446.5	505.0	505.0
2681.0	5362.013	0.1276	81.01587	447.25	506.0	506.0
2686.0	5372.014	0.1276	81.01587	448.25	507.0	507.0
2690.0	5380.014	0.1276	81.01587	449.0	508.0	508.0
2695.0	5390.015	0.1277	81.07937	449.75	508.0	508.0
2699.0	5398.015	0.1277	81.07937	450.5	509.0	509.0
2705.0	5410.015	0.1277	81.07937	451.5	510.0	510.0
2710.0	5420.019	0.1278	81.14286	452.5	511.0	511.0
2714.0	5428.019	0.1277	81.07937	453.25	512.0	512.0
2717.0	5434.019	0.1276	81.01587	454.0	512.0	512.0
2722.0	5444.02	0.1276	81.01587	454.75	513.0	513.0
2725.0	5450.02	0.1275	80.95238	455.5	514.0	513.0
2730.0	5460.02	0.1274	80.88889	456.5	514.0	514.0
2735.0	5470.02	0.1274	80.88889	457.25	515.0	515.0
2739.0	5478.02	0.1274	80.88889	458.0	516.0	516.0
2744.0	5488.02	0.1274	80.88889	458.75	516.0	517.0
2748.0	5496.02	0.1274	80.88889	459.5	517.0	517.0
2753.0	5506.02	0.1275	80.95238	460.25	518.0	518.0
2757.0	5514.02	0.1274	80.88889	461.0	519.0	519.0
2763.0	5526.02	0.1274	80.88889	462.0	520.0	520.0
2766.0	5532.02	0.1275	80.95238	462.75	520.0	520.0
2769.0	5538.02	0.1276	81.01587	463.5	521.0	521.0
2773.0	5546.02	0.1275	80.95238	464.25	521.0	521.0
2777.0	5554.02	0.1275	80.95238	465.0	522.0	522.0
2781.0	5562.02	0.1275	80.95238	465.75	523.0	523.0
2786.0	5572.02	0.1275	80.95238	466.5	523.0	524.0
2790.0	5580.02	0.1275	80.95238	467.25	524.0	524.0
2795.0	5590.024	0.1277	81.07937	468.0	525.0	525.0
2799.0	5598.024	0.1276	81.01587	468.75	525.0	526.0
2803.0	5606.024	0.1275	80.95238	469.5	526.0	527.0
2806.0	5612.025	0.1275	80.95238	470.25	527.0	527.0
2810.0	5620.025	0.1276	81.01587	471.0	528.0	528.0
2814.0	5628.025	0.1275	80.95238	471.75	529.0	528.0
2819.0	5638.025	0.1274	80.88889	472.5	529.0	529.0
2824.0	5648.025	0.1274	80.88889	473.25	529.0	530.0
2829.0	5658.025	0.1274	80.88889	474.25	531.0	531.0
2832.0	5664.025	0.1274	80.88889	475.0	531.0	531.0
2835.0	5670.025	0.1274	80.88889	475.75	532.0	532.0
2839.0	5678.025	0.1274	80.88889	476.5	533.0	533.0
2845.0	5690.025	0.1274	80.88889	477.25	533.0	534.0
2851.0	5702.025	0.1274	80.88889	478.0	534.0	535.0
2855.0	5710.025	0.1274	80.88889	478.75	535.0	535.0
2858.0	5716.027	0.1274	80.88889	479.5	535.0	536.0
2863.0	5726.027	0.1274	80.88889	480.5	536.0	537.0
2866.0	5732.027	0.1275	80.95238	481.25	537.0	537.0
2870.0	5740.027	0.1274	80.88889	482.0	538.0	538.0
2875.0	5750.027	0.1274	80.88889	482.75	538.0	539.0
2879.0	5758.027	0.1274	80.88889	483.5	540.0	539.0
2885.0	5770.029	0.1274	80.88889	484.5	540.0	540.0
2888.0	5776.029	0.1274	80.88889	485.25	541.0	541.0
2893.0	5786.029	0.1274	80.88889	486.0	541.0	542.0
2897.0	5794.029	0.1274	80.88889	486.75	542.0	542.0
2901.0	5802.029	0.1274	80.88889	487.5	542.0	543.0
2904.0	5808.029	0.1274	80.88889	488.25	543.0	543.0
2908.0	5816.029	0.1276	81.01587	489.0	544.0	544.0
2912.0	5824.029	0.1275	80.95238	489.75	544.0	545.0
2916.0	5832.029	0.1275	80.95238	490.5	545.0	545.0
2920.0	5840.029	0.1275	80.95238	491.25	546.0	546.0
2924.0	5848.031	0.1274	80.88889	492.0	546.0	547.0
2928.0	5856.031	0.1273	80.8254	492.75	547.0	547.0
2935.0	5870.031	0.1274	80.88889	494.0	549.0	549.0
2942.0	5884.031	0.1275	80.95238	494.75	549.0	550.0
2945.0	5890.031	0.1274	80.88889	495.5	550.0	550.0
2948.0	5896.031	0.1275	80.95238	496.25	551.0	551.0
2951.0	5902.031	0.1275	80.95238	497.0	552.0	551.0
2956.0	5912.031	0.1274	80.88889	497.75	552.0	552.0
2963.0	5926.034	0.1274	80.88889	498.5	552.0	553.0
2966.0	5932.034	0.1274	80.88889	499.5	553.0	554.0
2969.0	5938.034	0.1274	80.88889	500.25	555.0	554.0
2974.0	5948.034	0.1274	80.88889	501.0	555.0	555.0
2979.0	5958.034	0.1274	80.88889	501.75	555.0	556.0
2984.0	5968.034	0.1273	80.8254	502.5	556.0	557.0
2988.0	5976.035	0.1273	80.8254	503.25	557.0	557.0
2991.0	5982.036	0.1273	80.8254	504.0	557.0	558.0
2994.0	5988.036	0.1273	80.8254	504.75	559.0	558.0
2998.0	5996.036	0.1273	80.8254	505.5	559.0	559.0
3003.0	6006.036	0.1274	80.88889	506.25	560.0	560.0
3008.0	6016.039	0.1273	80.8254	507.0	560.0	561.0
3012.0	6024.039	0.1273	80.8254	507.75	561.0	562.0
3016.0	6032.039	0.1273	80.8254	508.5	561.0	562.0
3022.0	6044.039	0.1272	80.7619	509.5	562.0	563.0
3027.0	6054.039	0.1272	80.7619	510.25	564.0	564.0
3030.0	6060.039	0.1273	80.8254	511.0	565.0	565.0
3035.0	6070.039	0.1273	80.8254	511.75	566.0	565.0
3041.0	6082.039	0.1273	80.8254	512.5	565.0	566.0
3044.0	6088.039	0.1273	80.8254	513.5	567.0	567.0
3047.0	6094.039	0.1273	80.8254	514.25	567.0	567.0
3050.0	6100.039	0.1273	80.8254	515.0	569.0	568.0
3054.0	6108.039	0.1272	80.7619	515.75	568.0	569.0
3062.0	6124.039	0.1272	80.7619	516.5	570.0	570.0
3067.0	6134.039	0.1273	80.8254	517.25	571.0	571.0
3071.0	6142.039	0.1272	80.7619	518.0	571.0	571.0
3075.0	6150.039	0.1271	80.69841	519.25	572.0	572.0
3079.0	6158.039	0.1271	80.69841	520.0	573.0	573.0
3084.0	6168.04	0.1272	80.7619	520.75	573.0	574.0
3092.0	6184.042	0.1271	80.69841	522.0	573.0	575.0
3095.0	6190.042	0.1271	80.69841	522.75	575.0	575.0
3098.0	6196.042	0.1271	80.69841	523.5	575.0	576.0
3103.0	6206.042	0.1272	80.7619	524.25	577.0	577.0
3108.0	6216.042	0.1271	80.69841	525.0	578.0	578.0
3114.0	6228.042	0.1271	80.69841	525.75	578.0	579.0
3118.0	6236.042	0.127	80.63492	526.5	579.0	579.0
3122.0	6244.042	0.127	80.63492	527.25	580.0	580.0
3127.0	6254.042	0.127	80.63492	528.0	581.0	581.0
3131.0	6262.042	0.127	80.63492	529.0	581.0	581.0
3135.0	6270.044	0.127	80.63492	529.75	582.0	582.0
3139.0	6278.044	0.127	80.63492	530.5	583.0	583.0
3144.0	6288.044	0.127	80.63492	531.25	583.0	584.0
3150.0	6300.044	0.1271	80.69841	532.0	583.0	585.0
3153.0	6306.044	0.127	80.63492	532.75	585.0	585.0
3156.0	6312.044	0.127	80.63492	533.5	585.0	586.0
3159.0	6318.044	0.127	80.63492	534.25	586.0	586.0
3166.0	6332.045	0.127	80.63492	535.0	587.0	587.0
3171.0	6342.047	0.1271	80.69841	535.75	588.0	588.0
3175.0	6350.047	0.1271	80.69841	536.75	588.0	589.0
3178.0	6356.048	0.1271	80.69841	537.5	589.0	589.0
3182.0	6364.05	0.1271	80.69841	538.25	590.0	590.0
3187.0	6374.051	0.127	80.63492	539.0	590.0	591.0
3191.0	6382.051	0.127	80.63492	539.75	591.0	591.0
3195.0	6390.052	0.1271	80.69841	540.5	592.0	592.0
3200.0	6400.053	0.1271	80.69841	541.5	593.0	593.0
3203.0	6406.053	0.127	80.63492	542.25	592.0	593.0
3207.0	6414.053	0.127	80.63492	543.0	594.0	594.0
3213.0	6426.053	0.127	80.63492	543.75	595.0	595.0
3217.0	6434.053	0.1269	80.57143	544.5	595.0	596.0
3222.0	6444.053	0.1268	80.50794	545.25	597.0	597.0
3226.0	6452.053	0.1269	80.57143	546.0	597.0	597.0
3232.0	6464.054	0.1268	80.50794	546.75	598.0	598.0
3237.0	6474.056	0.1268	80.50794	547.5	599.0	599.0
3241.0	6482.056	0.1268	80.50794	548.5	599.0	600.0
3244.0	6488.056	0.1268	80.50794	549.5	599.0	600.0
3247.0	6494.056	0.1268	80.50794	550.5	600.0	601.0
3250.0	6500.056	0.1268	80.50794	551.75	601.0	601.0
3253.0	6506.056	0.1268	80.50794	552.5	603.0	602.0
3258.0	6516.057	0.1269	80.57143	553.25	603.0	603.0
3267.0	6534.057	0.1269	80.57143	554.0	603.0	604.0
3270.0	6540.057	0.1269	80.57143	554.75	604.0	605.0
3273.0	6546.057	0.1269	80.57143	555.5	605.0	605.0
3277.0	6554.057	0.1269	80.57143	556.25	606.0	606.0
3282.0	6564.057	0.1269	80.57143	557.0	606.0	607.0
3287.0	6574.057	0.1268	80.50794	557.75	607.0	608.0
3291.0	6582.057	0.1268	80.50794	558.5	608.0	608.0
3296.0	6592.057	0.1268	80.50794	559.5	609.0	609.0
3299.0	6598.057	0.1268	80.50794	560.25	610.0	610.0
3304.0	6608.057	0.1268	80.50794	561.0	610.0	610.0
3310.0	6620.057	0.1268	80.50794	561.75	611.0	611.0
3314.0	6628.059	0.1268	80.50794	562.5	611.0	612.0
3318.0	6636.059	0.1268	80.50794	563.5	612.0	613.0
3324.0	6648.059	0.1268	80.50794	564.5	614.0	614.0
3331.0	6662.06	0.1267	80.44444	565.25	614.0	615.0
3334.0	6668.06	0.1267	80.44444	566.0	615.0	615.0
3338.0	6676.06	0.1267	80.44444	567.0	616.0	616.0
3343.0	6686.06	0.1266	80.38095	567.75	617.0	617.0
3348.0	6696.06	0.1263	80.19048	568.5	617.0	618.0
3351.0	6702.06	0.1266	80.38095	569.25	618.0	618.0
3357.0	6714.06	0.1263	80.19048	570.5	619.0	619.0
3363.0	6726.06	0.1266	80.38095	571.25	620.0	620.0
3368.0	6736.06	0.1267	80.44444	572.0	621.0	621.0
3371.0	6742.06	0.1267	80.44444	572.75	621.0	622.0
3375.0	6750.06	0.1267	80.44444	573.5	622.0	622.0
3380.0	6760.06	0.1267	80.44444	574.25	623.0	623.0
3387.0	6774.06	0.1268	80.50794	575.0	624.0	624.0
3391.0	6782.06	0.1266	80.38095	575.75	624.0	625.0
3395.0	6790.06	0.1266	80.38095	576.5	625.0	626.0
3398.0	6796.06	0.1266	80.38095	577.25	626.0	626.0
3402.0	6804.06	0.1266	80.38095	578.0	626.0	627.0
3407.0	6814.06	0.1266	80.38095	578.75	627.0	628.0
3412.0	6824.06	0.1265	80.31746	579.75	628.0	628.0
3417.0	6834.06	0.1265	80.31746	580.5	629.0	629.0
3421.0	6842.06	0.1265	80.31746	581.25	629.0	630.0
3426.0	6852.06	0.1265	80.31746	582.5	630.0	631.0
3430.0	6860.06	0.1265	80.31746	583.25	631.0	631.0
3434.0	6868.06	0.1265	80.31746	584.0	632.0	632.0
3439.0	6878.06	0.1267	80.44444	584.75	633.0	633.0
3444.0	6888.06	0.1267	80.44444	585.5	634.0	634.0
3449.0	6898.06	0.1266	80.38095	586.25	635.0	635.0
3454.0	6908.06	0.1265	80.31746	587.0	636.0	636.0
3458.0	6916.06	0.1265	80.31746	587.75	636.0	636.0
3462.0	6924.06	0.1264	80.25397	588.5	637.0	637.0
3467.0	6934.06	0.1265	80.31746	589.25	637.0	638.0
3472.0	6944.06	0.1265	80.31746	590.25	638.0	639.0
3475.0	6950.06	0.1265	80.31746	591.0	639.0	639.0
3479.0	6958.06	0.1265	80.31746	591.75	639.0	640.0
3484.0	6968.06	0.1265	80.31746	592.5	640.0	641.0
3488.0	6976.06	0.1264	80.25397	593.25	641.0	641.0
3492.0	6984.06	0.1264	80.25397	594.0	642.0	642.0
3496.0	6992.06	0.1264	80.25397	594.75	643.0	643.0
3502.0	7004.06	0.1264	80.25397	595.5	643.0	644.0
3507.0	7014.06	0.1264	80.25397	596.75	643.0	644.0
3510.0	7020.06	0.1264	80.25397	597.5	644.0	645.0
3513.0	7026.06	0.1264	80.25397	598.75	645.0	645.0
3518.0	7036.06	0.1264	80.25397	599.75	647.0	646.0
3526.0	7052.06	0.1264	80.25397	600.5	647.0	648.0
3530.0	7060.06	0.1264	80.25397	601.25	647.0	648.0
3533.0	7066.06	0.1264	80.25397	602.0	648.0	649.0
3536.0	7072.06	0.1263	80.19048	602.75	649.0	649.0
3541.0	7082.06	0.1263	80.19048	603.75	650.0	650.0
3546.0	7092.06	0.1263	80.19048	604.5	651.0	651.0
3553.0	7106.06	0.1263	80.19048	605.25	652.0	652.0
3559.0	7118.06	0.1264	80.25397	606.0	652.0	653.0
3563.0	7126.06	0.1263	80.19048	606.75	653.0	654.0
3566.0	7132.06	0.1264	80.25397	607.5	654.0	654.0
3569.0	7138.06	0.1264	80.25397	608.25	654.0	655.0
3573.0	7146.06	0.1264	80.25397	609.0	655.0	655.0
3577.0	7154.06	0.1263	80.19048	609.75	656.0	656.0
3581.0	7162.06	0.1263	80.19048	610.5	657.0	657.0
3588.0	7176.06	0.1263	80.19048	611.25	657.0	658.0
3592.0	7184.06	0.1263	80.19048	612.0	658.0	659.0
3596.0	7192.06	0.1263	80.19048	612.75	659.0	659.0
3603.0	7206.06	0.1262	80.12698	613.5	660.0	660.0
3607.0	7214.06	0.1262	80.12698	614.25	661.0	661.0
3611.0	7222.06	0.1261	80.06349	615.0	661.0	662.0
3614.0	7228.06	0.1261	80.06349	615.75	662.0	662.0
3618.0	7236.06	0.1262	80.12698	616.5	663.0	663.0
3624.0	7248.06	0.1262	80.12698	617.25	664.0	664.0
3629.0	7258.06	0.1262	80.12698	618.0	664.0	665.0
3634.0	7268.06	0.1261	80.06349	618.75	665.0	666.0
3637.0	7274.06	0.1261	80.06349	619.5	665.0	666.0
3641.0	7282.06	0.1261	80.06349	620.25	667.0	667.0
3644.0	7288.06	0.1262	80.12698	621.0	667.0	667.0
3650.0	7300.06	0.1261	80.06349	621.75	668.0	668.0
3655.0	7310.06	0.1261	80.06349	622.5	668.0	669.0
3659.0	7318.06	0.126	80.0	623.25	669.0	670.0
3664.0	7328.06	0.1261	80.06349	624.0	670.0	671.0
3669.0	7338.06	0.1263	80.19048	624.75	671.0	671.0
3673.0	7346.06	0.1262	80.12698	625.75	671.0	672.0
3676.0	7352.06	0.1262	80.12698	626.5	671.0	673.0
3679.0	7358.06	0.1262	80.12698	627.5	673.0	673.0
3682.0	7364.06	0.1261	80.06349	628.25	673.0	674.0
3685.0	7370.06	0.1261	80.06349	629.0	674.0	674.0
3688.0	7376.06	0.1261	80.06349	629.75	675.0	675.0
3692.0	7384.06	0.1261	80.06349	630.5	675.0	675.0
3698.0	7396.06	0.126	80.0	631.25	676.0	676.0
3705.0	7410.06	0.1261	80.06349	632.0	677.0	678.0
3709.0	7418.06	0.1261	80.06349	633.0	678.0	678.0
3715.0	7430.06	0.1261	80.06349	633.75	679.0	679.0
3720.0	7440.06	0.1261	80.06349	634.5	679.0	680.0
3725.0	7450.06	0.1261	80.06349	635.25	680.0	681.0
3729.0	7458.06	0.1261	80.06349	636.0	681.0	682.0
3732.0	7464.06	0.1261	80.06349	636.75	682.0	682.0
3737.0	7474.06	0.1261	80.06349	637.5	683.0	683.0
3742.0	7484.06	0.1261	80.06349	638.25	683.0	684.0
3748.0	7496.06	0.1261	80.06349	639.0	684.0	685.0
3752.0	7504.06	0.1261	80.06349	639.75	685.0	685.0
3756.0	7512.06	0.126	80.0	640.5	686.0	686.0
3761.0	7522.06	0.126	80.0	641.25	687.0	687.0
3766.0	7532.06	0.126	80.0	642.0	687.0	688.0
3770.0	7540.06	0.126	80.0	642.75	687.0	688.0
3774.0	7548.06	0.126	80.0	643.5	688.0	689.0
3778.0	7556.06	0.126	80.0	644.25	689.0	690.0
3784.0	7568.06	0.126	80.0	645.0	690.0	691.0
3789.0	7578.06	0.1259	79.93651	646.0	691.0	692.0
3793.0	7586.06	0.1259	79.93651	646.75	692.0	692.0
3796.0	7592.06	0.1259	79.93651	647.5	693.0	693.0
3799.0	7598.06	0.1259	79.93651	648.25	693.0	693.0
3803.0	7606.06	0.1259	79.93651	649.0	693.0	694.0
3807.0	7614.06	0.1259	79.93651	650.0	694.0	695.0
3810.0	7620.06	0.1259	79.93651	650.75	695.0	695.0
3813.0	7626.06	0.1258	79.87302	651.75	695.0	696.0
3817.0	7634.06	0.1259	79.93651	652.5	696.0	696.0
3822.0	7644.06	0.126	80.0	653.25	696.0	697.0
3827.0	7654.06	0.1259	79.93651	654.0	697.0	698.0
3835.0	7670.06	0.1258	79.87302	654.75	699.0	699.0
3841.0	7682.06	0.1258	79.87302	655.5	699.0	700.0
3846.0	7692.06	0.1257	79.80952	656.5	700.0	701.0
3849.0	7698.06	0.1257	79.80952	657.25	701.0	702.0
3853.0	7706.06	0.1258	79.87302	658.0	702.0	702.0
3859.0	7718.06	0.1258	79.87302	658.75	703.0	703.0
3864.0	7728.06	0.1258	79.87302	659.5	704.0	704.0
3869.0	7738.06	0.1258	79.87302	660.25	704.0	705.0
3873.0	7746.06	0.1257	79.80952	661.0	705.0	706.0
3876.0	7752.06	0.1257	79.80952	661.75	705.0	706.0
3880.0	7760.06	0.1258	79.87302	662.5	706.0	707.0
3887.0	7774.06	0.1257	79.80952	663.5	707.0	708.0
3892.0	7784.06	0.1257	79.80952	664.25	708.0	709.0
3896.0	7792.06	0.1257	79.80952	665.0	709.0	709.0
3901.0	7802.06	0.1258	79.87302	665.75	710.0	710.0
3906.0	7812.06	0.1258	79.87302	666.5	711.0	711.0
3910.0	7820.06	0.1257	79.80952	667.25	711.0	712.0
3913.0	7826.06	0.1258	79.87302	668.0	712.0	712.0
3918.0	7836.06	0.1258	79.87302	669.0	712.0	713.0
3922.0	7844.06	0.1257	79.80952	670.0	713.0	714.0
3926.0	7852.06	0.1257	79.80952	671.0	714.0	715.0
3929.0	7858.06	0.1257	79.80952	671.75	714.0	715.0
3934.0	7868.06	0.1258	79.87302	672.5	715.0	716.0
3941.0	7882.06	0.1259	79.93651	673.25	716.0	717.0
3946.0	7892.06	0.1258	79.87302	674.0	717.0	718.0
3950.0	7900.06	0.1257	79.80952	674.75	717.0	719.0
3953.0	7906.06	0.1257	79.80952	675.5	718.0	719.0
3958.0	7916.06	0.1258	79.87302	676.25	719.0	720.0
3963.0	7926.06	0.1258	79.87302	677.0	720.0	721.0
3967.0	7934.06	0.1257	79.80952	677.75	721.0	721.0
3972.0	7944.06	0.1256	79.74603	678.5	722.0	722.0
3979.0	7958.06	0.1255	79.68254	679.25	723.0	723.0
3984.0	7968.06	0.1255	79.68254	680.0	724.0	724.0
3988.0	7976.06	0.1255	79.68254	680.75	724.0	725.0
3992.0	7984.06	0.1255	79.68254	681.5	725.0	726.0
3996.0	7992.06	0.1256	79.74603	682.25	726.0	726.0
4001.0	8002.06	0.1255	79.68254	683.0	726.0	727.0
4006.0	8012.06	0.1256	79.74603	683.75	727.0	728.0
4011.0	8022.06	0.1256	79.74603	684.5	729.0	729.0
4015.0	8030.06	0.1256	79.74603	685.25	728.0	729.0
4019.0	8038.06	0.1256	79.74603	686.0	729.0	730.0
4023.0	8046.06	0.1256	79.74603	686.75	729.0	731.0
4026.0	8052.06	0.1256	79.74603	687.5	730.0	731.0
4029.0	8058.06	0.1255	79.68254	688.25	730.0	732.0
4032.0	8064.06	0.1255	79.68254	689.0	731.0	732.0
4036.0	8072.06	0.1256	79.74603	689.75	732.0	733.0
4040.0	8080.06	0.1256	79.74603	690.5	732.0	734.0
4045.0	8090.06	0.1256	79.74603	691.25	733.0	734.0
4048.0	8096.06	0.1256	79.74603	692.0	734.0	735.0
4052.0	8104.06	0.1255	79.68254	692.75	734.0	736.0
4058.0	8116.06	0.1255	79.68254	693.5	736.0	737.0
4063.0	8126.06	0.1255	79.68254	694.25	737.0	737.0
4070.0	8140.06	0.1255	79.68254	695.0	738.0	739.0
4076.0	8152.06	0.1255	79.68254	695.75	738.0	740.0
4080.0	8160.06	0.1255	79.68254	696.5	739.0	740.0
4084.0	8168.06	0.1255	79.68254	697.5	740.0	741.0
4090.0	8180.06	0.1255	79.68254	698.25	741.0	742.0
4094.0	8188.06	0.1255	79.68254	699.0	741.0	743.0
4098.0	8196.06	0.1255	79.68254	699.75	743.0	743.0
4105.0	8210.06	0.1255	79.68254	700.5	743.0	744.0
4109.0	8218.06	0.1255	79.68254	701.25	744.0	745.0
4113.0	8226.06	0.1255	79.68254	702.0	744.0	746.0
4118.0	8236.06	0.1255	79.68254	703.0	744.0	747.0
4122.0	8244.06	0.1255	79.68254	703.75	745.0	747.0
4125.0	8250.06	0.1255	79.68254	704.5	746.0	748.0
4130.0	8260.06	0.1255	79.68254	705.5	747.0	749.0
4135.0	8270.06	0.1256	79.74603	706.25	748.0	750.0
4139.0	8278.06	0.1255	79.68254	707.0	749.0	750.0
4144.0	8288.06	0.1255	79.68254	707.75	749.0	751.0
4147.0	8294.06	0.1255	79.68254	708.5	750.0	752.0
4152.0	8304.06	0.1254	79.61905	709.25	751.0	752.0
4157.0	8314.06	0.1254	79.61905	710.0	752.0	753.0
4162.0	8324.06	0.1254	79.61905	710.75	753.0	754.0
4166.0	8332.06	0.1254	79.61905	711.5	753.0	755.0
4171.0	8342.06	0.1253	79.55556	712.25	754.0	756.0
4177.0	8354.06	0.1254	79.61905	713.0	755.0	757.0
4181.0	8362.06	0.1253	79.55556	713.75	756.0	757.0
4186.0	8372.06	0.1253	79.55556	714.5	757.0	758.0
4192.0	8384.06	0.1253	79.55556	715.25	758.0	759.0
4196.0	8392.06	0.1253	79.55556	716.0	758.0	760.0
4202.0	8404.06	0.1253	79.55556	716.75	759.0	761.0
4206.0	8412.06	0.1253	79.55556	717.5	759.0	761.0
4210.0	8420.06	0.1254	79.61905	718.25	760.0	762.0
4215.0	8430.06	0.1253	79.55556	719.0	761.0	763.0
4219.0	8438.06	0.1253	79.55556	719.75	762.0	764.0
4225.0	8450.06	0.1253	79.55556	720.5	762.0	765.0
4230.0	8460.06	0.1252	79.49206	721.25	763.0	765.0
4234.0	8468.06	0.1252	79.49206	722.0	764.0	766.0
4239.0	8478.06	0.1252	79.49206	722.75	764.0	767.0
4245.0	8490.06	0.1253	79.55556	723.5	766.0	768.0
4250.0	8500.06	0.1253	79.55556	724.25	767.0	769.0
4256.0	8512.06	0.1253	79.55556	725.0	767.0	770.0
4261.0	8522.06	0.1252	79.49206	725.75	768.0	771.0
4267.0	8534.06	0.1252	79.49206	726.5	769.0	772.0
4272.0	8544.06	0.1252	79.49206	727.25	769.0	772.0
4277.0	8554.06	0.1252	79.49206	728.0	770.0	773.0
4283.0	8566.06	0.1254	79.61905	728.75	771.0	774.0
4289.0	8578.06	0.1254	79.61905	729.5	772.0	775.0
4294.0	8588.06	0.1253	79.55556	730.25	772.0	776.0
4300.0	8600.06	0.1253	79.55556	731.0	773.0	777.0
4306.0	8612.06	0.1252	79.49206	731.75	774.0	778.0
4312.0	8624.06	0.1252	79.49206	732.5	774.0	779.0
4319.0	8638.06	0.1251	79.42857	733.25	775.0	780.0
4326.0	8652.06	0.1251	79.42857	734.0	777.0	781.0
4332.0	8664.06	0.1251	79.42857	734.75	777.0	782.0
4338.0	8676.06	0.1252	79.49206	735.5	778.0	783.0
4346.0	8692.06	0.1252	79.49206	736.25	778.0	785.0
4354.0	8708.06	0.1251	79.42857	737.0	779.0	786.0
4363.0	8726.06	0.1251	79.42857	737.75	781.0	788.0
4371.0	8742.06	0.1251	79.42857	738.5	782.0	789.0
4379.0	8758.06	0.125	79.36508	739.25	782.0	790.0
4388.0	8776.06	0.125	79.36508	740.0	783.0	792.0
4399.0	8798.06	0.125	79.36508	740.75	784.0	794.0
4410.0	8820.06	0.125	79.36508	741.5	784.0	796.0
4420.0	8840.06	0.125	79.36508	742.25	784.0	797.0
4428.0	8856.06	0.125	79.36508	743.0	786.0	799.0
4439.0	8878.06	0.1251	79.42857	743.75	787.0	800.0
4450.0	8900.06	0.1251	79.42857	744.5	787.0	802.0
4461.0	8922.06	0.1251	79.42857	745.25	788.0	804.0
4472.0	8944.06	0.1252	79.49206	746.0	789.0	806.0
4486.0	8972.06	0.125	79.36508	746.75	790.0	808.0
4506.0	9012.06	0.1252	79.49206	747.5	791.0	812.0
4518.0	9036.06	0.1252	79.49206	748.25	791.0	814.0
4530.0	9060.06	0.1252	79.49206	749.0	793.0	816.0
4541.0	9082.06	0.1252	79.49206	749.75	793.0	817.0
4565.0	9130.06	0.1251	79.42857	750.5	794.0	821.0
4577.0	9154.06	0.1252	79.49206	751.25	795.0	824.0
4595.0	9190.06	0.1252	79.49206	752.0	796.0	827.0
4612.0	9224.06	0.1251	79.42857	752.75	796.0	829.0
4630.0	9260.06	0.125	79.36508	753.5	797.0	832.0
4649.0	9298.06	0.125	79.36508	754.25	797.0	836.0
4666.0	9332.06	0.125	79.36508	755.0	798.0	838.0
4683.0	9366.06	0.125	79.36508	755.75	799.0	841.0
4702.0	9404.06	0.125	79.36508	756.5	800.0	844.0
4748.0	9496.06	0.1252	79.49206	757.25	800.0	852.0
4779.0	9558.06	0.1252	79.49206	758.0	801.0	857.0
4799.0	9598.06	0.1253	79.55556	758.75	802.0	861.0
4833.0	9666.06	0.1251	79.42857	759.5	803.0	865.0
4857.0	9714.06	0.1251	79.42857	760.25	805.0	867.0
4902.0	9804.06	0.125	79.36508	761.0	806.0	867.0
4935.0	9870.06	0.125	79.36508	761.75	806.0	868.0
4978.0	9956.06	0.1252	79.49206	762.5	806.0	868.0
5018.0	10036.06	0.1251	79.42857	763.25	807.0	868.0
5060.0	10120.06	0.1251	79.42857	764.0	807.0	870.0
5102.0	10204.06	0.1251	79.42857	764.75	808.0	870.0
5173.0	10346.06	0.1252	79.49206	765.5	809.0	871.0
5242.0	10484.06	0.1251	79.42857	766.25	810.0	872.0
5289.0	10578.06	0.1251	79.42857	767.0	811.0	872.0
5338.0	10676.06	0.1251	79.42857	767.75	812.0	874.0
5436.0	10872.072	0.1252	79.49206	768.5	812.0	874.0
5636.0	11272.072	0.1254	79.61905	769.25	813.0	876.0
5765.0	11530.072	0.1254	79.61905	770.0	814.0	876.0
6170.0	12340.072	0.1257	79.80952	770.75	815.0	877.0
6253.0	12506.072	0.1258	79.87302	771.25	815.0	878.0