File: charts/20230801/TGA/SATURADAS/Cs-ZCFA_fixed.txt
05/07/2023 14:07:08
User name: Gabs
Comments: programa 3
Time (min)	Weight (mg)	Deriv. Weight (%/°C)	Relative Mass (%)	Temperature (°C)	Balance Purge Flow (mL/min)	Sample Purge Flow (mL/min)
0.000666667	6.474337	0.07446069	100.0	22.89108	40.01065	60.00839
0.1208333	6.47031	0.07417469	99.9378	22.99368	39.9887	59.98512
0.2458334	6.465825	0.07308593	99.8685	23.33436	40.02926	59.99568
0.3708334	6.462549	0.07103269	99.8179	23.94545	39.98347	60.00723
0.4958334	6.459906	0.06931724	99.7771	24.79031	40.0046	60.0255
0.6208334	6.455787	0.06797434	99.7135	25.81498	39.99939	60.01238
0.7458334	6.450599	0.06723655	99.6334	26.95741	39.98896	60.0098
0.8708332	6.445722	0.06343168	99.558	28.16939	39.99511	60.02537
0.9958332	6.441508	0.06336865	99.4929	29.4175	39.97666	59.99905
1.120833	6.436282	0.06470452	99.4122	30.66958	40.00232	59.9975
1.245833	6.430208	0.06565345	99.3184	31.91767	39.9995	60.0034
1.370833	6.42457	0.06596818	99.2313	33.15096	39.97548	60.01582
1.495833	6.419854	0.06610475	99.1585	34.37488	40.01269	60.01509
1.620833	6.414822	0.06590796	99.0808	35.58386	40.01042	59.9901
1.745833	6.409661	0.0653745	99.001	36.78914	39.96944	59.99802
1.870833	6.404589	0.06457066	98.9227	37.9899	40.01097	59.93216
1.995833	6.399276	0.0635787	98.8406	39.1868	40.00438	60.00874
2.120834	6.39452	0.06257168	98.7672	40.38543	39.9925	60.01324
2.245834	6.389638	0.06177868	98.6918	41.58722	39.98418	59.96606
2.370834	6.38484	0.06088945	98.6177	42.78804	39.99779	59.9952
2.495834	6.380379	0.06007964	98.5488	43.9929	40.01187	59.99732
2.620834	6.375867	0.05982994	98.4791	45.20404	40.00294	59.9766
2.745834	6.370945	0.05968744	98.403	46.41455	39.98384	59.9885
2.870834	6.366287	0.05946426	98.3311	47.63193	40.01462	59.98461
2.995834	6.361522	0.0593843	98.2575	48.84908	40.01773	59.99348
3.120834	6.356962	0.05936985	98.1871	50.07057	40.00791	60.00771
3.245834	6.352251	0.05925274	98.1143	51.2957	39.99779	59.97886
3.370834	6.347553	0.05943066	98.0417	52.52349	39.99738	60.02824
3.495834	6.342716	0.0597131	97.967	53.75127	40.00087	59.99154
3.620834	6.338019	0.06034996	97.8945	54.985	40.00672	59.97786
3.745834	6.33334	0.06119371	97.8222	56.21711	39.97994	59.9904
3.870834	6.328242	0.06198882	97.7435	57.4532	39.99886	59.99029
3.995834	6.323306	0.06291329	97.6672	58.68921	39.99692	59.98684
4.120834	6.318182	0.06401269	97.5881	59.93049	39.98675	59.97857
4.245834	6.313016	0.06505918	97.5083	61.1718	40.00984	59.96466
4.370834	6.307747	0.0663611	97.4269	62.4135	39.96631	59.98432
4.495834	6.30243	0.06796018	97.3448	63.65644	40.02893	60.01839
4.620834	6.296967	0.06981566	97.2604	64.89768	39.99852	60.00011
4.745834	6.291387	0.07205463	97.1742	66.14272	40.00944	59.98438
4.870834	6.285395	0.07461148	97.0817	67.39019	39.99904	60.01729
4.995834	6.27927	0.0775373	96.9871	68.63546	39.9934	60.03039
5.120834	6.273132	0.08054809	96.8923	69.88134	40.00421	59.99494
5.245834	6.266337	0.08380181	96.7873	71.12964	39.98115	60.0172
5.370834	6.259444	0.08762076	96.6808	72.3809	39.99574	59.99641
5.495834	6.252379	0.09189103	96.5717	73.62812	39.98598	60.00464
5.620834	6.244834	0.09643788	96.4552	74.87647	40.01064	60.02782
5.745834	6.236925	0.1011044	96.333	76.12763	39.991	59.99302
5.870834	6.228328	0.1058224	96.2002	77.37603	39.97996	59.9687
5.995834	6.219514	0.1112296	96.0641	78.62652	40.00631	60.0184
6.120834	6.210324	0.1165319	95.9222	79.87455	39.99048	59.9971
6.245834	6.20085	0.1218348	95.7758	81.12818	40.02218	59.95625
6.370834	6.190889	0.1271595	95.622	82.37816	40.02036	59.98264
6.495834	6.179948	0.1325721	95.453	83.62934	39.99844	59.94458
6.620834	6.169254	0.137863	95.2878	84.88228	40.00923	60.01199
6.745834	6.157806	0.1431458	95.111	86.13394	39.97756	60.00295
6.870834	6.145932	0.1477226	94.9276	87.38705	40.02032	60.02476
6.995834	6.13376	0.1522474	94.7396	88.63907	39.99033	60.0057
7.120834	6.121236	0.1565428	94.5461	89.89106	40.01104	59.99094
7.245834	6.108253	0.1602325	94.3456	91.14169	39.99328	60.00127
7.370834	6.095081	0.1633386	94.1422	92.39681	39.97965	60.00984
7.495834	6.08166	0.1659438	93.9349	93.64876	40.0143	59.99682
7.620834	6.067926	0.1677532	93.7227	94.90118	40.02264	59.99482
7.745834	6.054454	0.1687586	93.5147	96.15292	39.98901	59.98396
7.870834	6.0404	0.1689566	93.2976	97.40571	40.006	60.01928
7.995834	6.026565	0.1682356	93.0839	98.65949	39.99617	59.99498
8.120834	6.012934	0.1667046	92.8734	99.91045	40.02126	60.01862
8.245834	5.999372	0.1644131	92.6639	101.164	40.01794	59.99691
8.370834	5.986094	0.1611489	92.4588	102.4181	40.00125	59.99036
8.495834	5.973036	0.1570991	92.2571	103.6701	39.996	60.00276
8.620834	5.960374	0.1523593	92.0615	104.9212	39.99242	59.98041
8.745834	5.94809	0.1466798	91.8718	106.1718	39.99594	59.98135
8.870834	5.936508	0.1404636	91.6929	107.425	40.00161	59.95828
8.995834	5.925244	0.1338056	91.5189	108.677	40.00613	60.00238
9.120834	5.914618	0.1269183	91.3548	109.9307	39.99168	60.02632
9.245834	5.904798	0.1198755	91.2031	111.1832	40.01656	59.98508
9.370834	5.895292	0.1130212	91.0563	112.4324	40.01984	59.97065
9.495834	5.886376	0.1061772	90.9186	113.6824	40.01545	60.00286
9.620834	5.878204	0.09967511	90.7924	114.9353	40.00764	59.98239
9.745834	5.870388	0.09347688	90.6716	116.1848	39.99727	60.00713
9.870834	5.86307	0.08762216	90.5586	117.4357	40.026	59.98929
9.995834	5.856371	0.0822075	90.4551	118.6842	40.03011	60.00569
10.12083	5.850037	0.07723016	90.3573	119.9353	40.00186	60.01331
10.24583	5.843744	0.07263799	90.2601	121.1879	39.99176	59.99409
10.37083	5.838228	0.06855668	90.1749	122.4367	39.96875	59.97963
10.49584	5.83291	0.06476695	90.0928	123.6878	40.0029	60.02644
10.62084	5.827784	0.06125571	90.0136	124.9391	39.97225	59.99161
10.74584	5.823043	0.05811217	89.9404	126.1902	39.98458	60.0155
10.87084	5.818479	0.05513374	89.8699	127.4423	39.98304	60.0381
10.99584	5.81414	0.05220041	89.8029	128.6944	40.00705	59.9966
11.12084	5.809932	0.04928667	89.7379	129.9442	39.99803	59.98906
11.24584	5.806209	0.04679322	89.6804	131.1968	40.00206	59.99452
11.37084	5.802406	0.04464928	89.6216	132.4464	39.93819	59.99055
11.49584	5.799042	0.04268828	89.5697	133.6997	39.98194	60.00822
11.62084	5.795847	0.0409284	89.5203	134.9526	40.02622	60.02694
11.74584	5.792412	0.03954437	89.4673	136.2038	40.01306	59.98785
11.87084	5.789158	0.03818396	89.417	137.4538	40.01532	60.03281
11.99584	5.786234	0.03685722	89.3718	138.7063	39.99822	60.00217
12.12084	5.783374	0.03541089	89.3277	139.9582	40.01744	59.9987
12.24584	5.780416	0.03407382	89.282	141.2096	39.98028	59.99127
12.37084	5.77789	0.03281223	89.243	142.4624	39.98735	59.9895
12.49584	5.775157	0.0313936	89.2007	143.7166	39.987	60.00585
12.62084	5.77266	0.03020952	89.1622	144.9654	39.98717	60.01606
12.74584	5.770208	0.02896756	89.1243	146.2175	39.99805	59.99322
12.87083	5.768144	0.02796594	89.0924	147.4711	40.05922	60.00822
12.99583	5.76589	0.02695984	89.0576	148.7225	39.98605	59.98022
13.12083	5.763584	0.02623894	89.022	149.9751	40.02695	60.00126
13.24583	5.761534	0.02554282	88.9903	151.2264	39.98346	59.99474
13.37083	5.759615	0.02453198	88.9607	152.4758	40.01262	60.00588
13.49583	5.757465	0.02334112	88.9275	153.728	40.00453	59.96322
13.62083	5.755634	0.02281469	88.8992	154.9808	40.007	59.98551
13.74583	5.753818	0.0222109	88.8712	156.2335	39.98294	59.98726
13.87083	5.752434	0.02138812	88.8498	157.485	40.002	60.00419
13.99583	5.75052	0.02046882	88.8202	158.7398	39.9725	59.9941
14.12083	5.748526	0.01989779	88.7894	159.9913	40.03015	60.0
14.24583	5.74712	0.0196344	88.7677	161.2411	39.99903	59.97494
14.37083	5.745732	0.01914105	88.7463	162.4911	40.02402	59.97974
14.49583	5.74452	0.01862549	88.7275	163.7414	40.02329	59.98662
14.62083	5.742734	0.01858223	88.7	164.9914	39.99672	59.9919
14.74583	5.74113	0.01874407	88.6752	166.2426	39.99974	59.99926
14.87083	5.739612	0.01868017	88.6517	167.4914	39.99198	60.00992
14.99583	5.738189	0.01840435	88.6298	168.7433	40.03898	59.98106
15.12083	5.736668	0.01782707	88.6063	169.9942	40.01088	59.93125
15.24583	5.735222	0.01743835	88.5839	171.2431	40.0189	60.01607
15.37083	5.733786	0.01697926	88.5617	172.4928	40.01107	59.999
15.49583	5.7325	0.01680309	88.5419	173.7423	39.99065	59.9988
15.62083	5.731132	0.01639164	88.5208	174.9916	39.98976	59.98909
15.74583	5.729858	0.01613425	88.5011	176.2434	40.0027	59.9668
15.87083	5.728542	0.01614696	88.4808	177.4906	40.02048	59.99726
15.99583	5.72714	0.0162698	88.4591	178.7408	40.0143	59.98368
16.12083	5.726238	0.01613027	88.4452	179.9894	40.01062	60.0028
16.24583	5.724542	0.01589752	88.419	181.239	39.99313	59.9894
16.37083	5.72324	0.01549359	88.3989	182.4906	39.96636	59.97967
16.49583	5.721934	0.01524237	88.3787	183.737	40.00737	60.00934
16.62083	5.720932	0.01489257	88.3632	184.9871	39.994	60.037
16.74583	5.719674	0.01441663	88.3438	186.2376	40.01633	60.01054
16.87083	5.718687	0.01424477	88.3285	187.4866	40.0165	59.9339
16.99583	5.71738	0.01413807	88.3083	188.7363	40.0121	60.00552
17.12083	5.716306	0.0140781	88.2918	189.9847	39.99933	59.99473
17.24583	5.715128	0.01378152	88.2736	191.2356	40.02185	59.98559
17.37083	5.713987	0.01352311	88.2559	192.4835	40.01938	60.02945
17.49583	5.712918	0.01317379	88.2394	193.7326	39.99535	59.9883
17.62083	5.711988	0.01295208	88.2251	194.9809	40.02067	59.98682
17.74583	5.710867	0.01269916	88.2078	196.2309	39.99074	60.02461
17.87083	5.709843	0.01257178	88.1919	197.4815	40.01404	60.01418
17.99583	5.708756	0.01234386	88.1751	198.7302	39.97582	60.0
18.12083	5.707815	0.01229084	88.1606	199.9824	40.0132	60.01646
18.24583	5.706782	0.01209828	88.1447	201.2297	40.02116	59.99062
18.37083	5.705924	0.01175648	88.1314	202.4792	39.98883	60.00986
18.49583	5.705011	0.01145004	88.1173	203.7265	39.98281	59.9847
18.62083	5.703982	0.01139947	88.1014	204.9753	39.98788	60.01426
18.74583	5.70315	0.01124039	88.0886	206.2249	39.9989	59.99189
18.87083	5.702254	0.01110434	88.0747	207.477	39.99697	60.02016
18.99583	5.701496	0.01086883	88.063	208.7244	39.99906	60.00324
19.12083	5.70026	0.01075068	88.0439	209.9754	40.00602	60.0102
19.24583	5.69966	0.01080744	88.0347	211.2248	40.0125	60.03798
19.37083	5.698738	0.01079834	88.0204	212.4712	39.96372	59.9916
19.49583	5.698	0.01081892	88.009	213.723	40.00335	59.99212
19.62083	5.696912	0.01077852	87.9922	214.972	40.00006	60.0313
19.74583	5.696272	0.01068666	87.9823	216.2194	40.01704	60.01169
19.87083	5.695094	0.01054421	87.9641	217.4688	40.01558	59.98515
19.99583	5.694297	0.01037652	87.9518	218.7153	39.98999	60.0175
20.12083	5.693653	0.01003701	87.9419	219.965	39.969	60.03258
20.24583	5.6927	0.009896172	87.9271	221.2143	39.9926	59.99595
20.37083	5.692021	0.009746985	87.9167	222.4627	39.95765	59.98984
20.49583	5.691148	0.009736832	87.9032	223.7114	40.02602	59.99745
20.62083	5.690406	0.009697564	87.8917	224.9592	40.00375	60.007
20.74583	5.68972	0.009496531	87.8811	226.2098	39.97841	60.00242
20.87083	5.688818	0.009616794	87.8672	227.4574	40.00256	59.97795
20.99583	5.688186	0.009765036	87.8574	228.7098	39.99805	60.01943
21.12083	5.68741	0.009813844	87.8454	229.9592	39.98539	60.0114
21.24583	5.686543	0.009788678	87.8321	231.2086	40.0126	60.02152
21.37083	5.685637	0.009703392	87.8181	232.4569	40.00561	60.01025
21.49583	5.684892	0.009720747	87.8066	233.7056	39.9736	60.0053
21.62083	5.68409	0.009677206	87.7942	234.9537	40.02327	59.95871
21.74583	5.683386	0.009559528	87.7833	236.2044	40.00539	60.00422
21.87083	5.682622	0.009415111	87.7715	237.4543	39.9875	60.00624
21.99583	5.681758	0.009337753	87.7581	238.7044	39.9864	60.00994
22.12083	5.681063	0.009159804	87.7474	239.9542	40.0122	59.96968
22.24583	5.680324	0.008800842	87.736	241.2067	40.0066	60.0305
22.37083	5.679566	0.008505318	87.7243	242.4557	40.00694	60.01091
22.49583	5.678918	0.008307957	87.7143	243.7072	40.01381	60.0173
22.62083	5.678455	0.008299549	87.7071	244.9577	39.98276	59.99436
22.74583	5.677622	0.008373343	87.6943	246.2073	39.97058	60.00984
22.87083	5.677041	0.0084138	87.6853	247.4575	40.00654	60.01371
22.99583	5.676314	0.008463809	87.6741	248.7072	40.00224	60.02451
23.12083	5.675598	0.008497381	87.663	249.9542	39.99419	60.00588
23.24583	5.674824	0.008455085	87.651	251.2048	40.02966	59.99104
23.37083	5.674205	0.008462863	87.6415	252.4541	40.01176	59.99946
23.49583	5.673555	0.008316925	87.6314	253.7041	39.99352	59.9752
23.62083	5.672812	0.008150688	87.62	254.9506	40.00608	60.02337
23.74583	5.67218	0.007957097	87.6102	256.2	39.9859	59.99954
23.87083	5.671465	0.007710709	87.5992	257.4484	39.98381	60.03621
23.99583	5.671025	0.007511862	87.5924	258.7017	40.03205	59.9636
24.12083	5.670404	0.007284236	87.5828	259.9491	39.97854	60.00926
24.24583	5.669731	0.007181111	87.5724	261.198	39.99998	60.02251
24.37083	5.669262	0.007241735	87.5651	262.4472	40.00789	60.02207
24.49583	5.66858	0.007464394	87.5546	263.696	39.99115	59.9688
24.62083	5.668085	0.007585735	87.547	264.9454	40.00616	59.97788
24.74583	5.66751	0.007587353	87.5381	266.195	40.00534	59.9803
24.87083	5.666769	0.007513034	87.5266	267.4457	40.02051	59.99329
24.99583	5.666049	0.007389762	87.5155	268.6959	40.00143	60.00033
25.12083	5.665502	0.00727103	87.5071	269.9424	39.97519	60.00056
25.24583	5.665026	0.007211261	87.4997	271.1926	40.00188	60.0179
25.37083	5.664481	0.007290642	87.4913	272.4442	39.99024	59.97446
25.49583	5.663895	0.00746767	87.4822	273.6913	40.02712	60.01168
25.62083	5.663253	0.007525744	87.4723	274.9426	40.00027	59.96959
25.74583	5.662524	0.007518594	87.4611	276.1905	39.99648	59.98357
25.87083	5.661889	0.00742126	87.4513	277.4399	40.02297	59.98292
25.99583	5.661382	0.00727514	87.4434	278.6894	40.02399	60.00347
26.12083	5.66083	0.007058069	87.4349	279.9378	39.98802	59.99256
26.24583	5.6603	0.006945038	87.4267	281.1878	39.96474	59.98736
26.37083	5.659727	0.006970546	87.4179	282.4382	39.99413	59.97031
26.49583	5.65909	0.0070437	87.408	283.6883	40.02	60.03037
26.62083	5.658609	0.006923736	87.4006	284.9381	40.00266	60.0179
26.74583	5.657916	0.00679773	87.3899	286.1844	40.00428	60.01838
26.87083	5.65749	0.006598169	87.3833	287.435	40.01904	59.99724
26.99583	5.656837	0.006427229	87.3732	288.6818	39.98407	59.97356
27.12083	5.656536	0.006425968	87.3686	289.9331	39.99027	60.01021
27.24583	5.655903	0.006398765	87.3588	291.1833	40.02098	59.98564
27.37083	5.655451	0.006396572	87.3518	292.4318	40.02226	59.98018
27.49583	5.654882	0.006533929	87.343	293.6802	39.99603	59.96824
27.62083	5.654249	0.00685403	87.3333	294.9291	39.96613	60.02762
27.74583	5.653862	0.006892898	87.3273	296.1796	39.97664	59.98059
27.87083	5.653306	0.006940089	87.3187	297.427	39.98038	60.00782
27.99583	5.652575	0.006937241	87.3074	298.6775	39.96684	59.9873
28.12083	5.65202	0.006936571	87.2988	299.9249	40.01887	59.98386
28.24583	5.651542	0.006875085	87.2914	301.1722	39.97156	60.00951
28.37083	5.651004	0.00664272	87.2831	302.4248	40.00906	59.98926
28.49583	5.650425	0.006471085	87.2742	303.6733	40.03238	59.9812
28.62083	5.649878	0.006502544	87.2657	304.9221	39.98781	59.98793
28.74583	5.649438	0.00644158	87.2589	306.1708	40.00232	60.00237
28.87083	5.648865	0.006490302	87.2501	307.4215	40.00365	59.98455
28.99583	5.648384	0.006475762	87.2427	308.6692	39.97926	60.00816
29.12083	5.647846	0.006448386	87.2344	309.9194	39.99728	60.02149
29.24583	5.647302	0.00631961	87.226	311.1656	39.99964	59.9924
29.37083	5.646723	0.006201615	87.217	312.4146	40.00728	60.00976
29.49583	5.64632	0.006210966	87.2108	313.6646	39.98125	59.9913
29.62083	5.64588	0.006159126	87.204	314.9121	40.00567	60.02149
29.74583	5.645443	0.00618689	87.1972	316.1629	40.01528	60.01701
29.87083	5.644816	0.006238661	87.1876	317.411	40.00668	60.00338
29.99583	5.64434	0.006398655	87.1802	318.6601	39.99761	59.99648
30.12083	5.64371	0.006505014	87.1705	319.9061	40.00754	60.00877
30.24583	5.6433	0.006501425	87.1641	321.1568	40.0	59.98808
30.37083	5.64278	0.0063671	87.1561	322.4068	39.98526	60.0149
30.49583	5.642141	0.00628168	87.1462	323.6562	39.9778	60.00142
30.62083	5.641728	0.006165885	87.1399	324.9058	39.98688	60.00978
30.74583	5.641206	0.006144878	87.1318	326.1545	40.00644	60.0006
30.87083	5.640757	0.005893822	87.1249	327.4048	40.0118	60.00118
30.99583	5.640266	0.00580329	87.1173	328.6556	39.98944	59.99176
31.12083	5.63973	0.005812224	87.109	329.9058	40.00712	60.01374
31.24583	5.639246	0.005869074	87.1015	331.1542	39.98949	59.97445
31.37083	5.638889	0.005948904	87.096	332.4027	39.9935	59.97639
31.49583	5.638356	0.006053188	87.0878	333.6544	40.00996	59.97924
31.62083	5.637918	0.006089744	87.081	334.903	40.01163	59.9559
31.74583	5.63748	0.005980027	87.0742	336.1524	39.98547	59.98701
31.87083	5.6368	0.005832862	87.0637	337.4003	39.9836	60.00576
31.99583	5.636328	0.00563882	87.0565	338.649	39.99074	60.02026
32.12084	5.635928	0.005631626	87.0503	339.897	40.02524	59.99648
32.24584	5.63562	0.005591382	87.0455	341.1476	40.01915	59.99586
32.37084	5.63509	0.005624232	87.0373	342.3961	40.01568	60.01104
32.49584	5.63472	0.005819685	87.0316	343.6456	39.99002	60.03115
32.62084	5.634065	0.005939076	87.0215	344.8948	40.01284	59.9648
32.74584	5.633654	0.005878138	87.0151	346.1439	39.98664	60.0457
32.87084	5.633106	0.00579947	87.0067	347.3937	40.00438	59.97112
32.99584	5.632745	0.005596359	87.0011	348.6434	40.01027	59.98209
33.12084	5.632256	0.005485052	86.9936	349.89	40.02088	60.00793
33.24584	5.631861	0.00529447	86.9875	351.1406	39.99608	59.9913
33.37084	5.631416	0.00531963	86.9806	352.3902	40.00754	60.00689
33.49584	5.630964	0.005391564	86.9736	353.6389	39.98397	59.99818
33.62084	5.63065	0.005430293	86.9688	354.8904	39.9964	59.98486
33.74584	5.630126	0.0054078	86.9607	356.139	39.98657	59.99158
33.87084	5.62959	0.005441162	86.9524	357.387	39.99817	60.01289
33.99584	5.629108	0.005354736	86.9449	358.6363	39.98718	60.01987
34.12084	5.628741	0.005237714	86.9393	359.8898	40.00788	59.99126
34.24584	5.628352	0.004934061	86.9333	361.1398	39.9762	60.03984
34.37084	5.627971	0.004930367	86.9274	362.3928	39.99936	60.00959
34.49584	5.627612	0.004975208	86.9218	363.6454	40.02672	59.99652
34.62084	5.627245	0.005138774	86.9162	364.8988	39.98876	59.96899
34.74584	5.626806	0.005101556	86.9094	366.1494	39.98113	60.02056
34.87084	5.626293	0.005150394	86.9015	367.4016	39.97815	59.99402
34.99584	5.625822	0.005178318	86.8942	368.653	40.01356	60.0074
35.12084	5.625562	0.0051207	86.8902	369.9058	39.96659	59.99362
35.24584	5.625134	0.004989479	86.8836	371.158	40.03991	59.98174
35.37084	5.62479	0.004996247	86.8782	372.4078	40.00488	59.98674
35.49584	5.62424	0.00488573	86.8697	373.6608	40.00332	60.02709
35.62084	5.623902	0.004912037	86.8645	374.912	40.02334	59.98559
35.74584	5.62344	0.004830144	86.8574	376.164	39.95683	59.99537
35.87084	5.623098	0.004836416	86.8521	377.4146	39.99573	60.01119
35.99584	5.622793	0.00477631	86.8474	378.6662	39.98326	60.00058
36.12084	5.622317	0.004743399	86.84	379.9165	40.00942	59.98705
36.24584	5.621866	0.004711636	86.8331	381.167	39.97114	59.98124
36.37084	5.62153	0.004800356	86.8279	382.4172	39.98654	60.01934
36.49584	5.62123	0.004700158	86.8233	383.6687	39.99456	59.97906
36.62084	5.620722	0.004558594	86.8154	384.9194	40.00002	60.00006
36.74584	5.620479	0.004482128	86.8117	386.1709	40.0051	59.97516
36.87084	5.62004	0.004581317	86.8049	387.4206	39.99292	60.00645
36.99584	5.619724	0.004502622	86.8	388.6708	39.98446	60.01699
37.12084	5.619416	0.004357324	86.7952	389.9225	40.00312	59.99598
37.24584	5.61895	0.004217532	86.788	391.172	39.99398	60.00351
37.37084	5.61855	0.00428884	86.7819	392.4231	40.01022	59.9946
37.49584	5.61832	0.00438143	86.7783	393.6726	39.99732	59.97672
37.62084	5.617993	0.004511691	86.7733	394.9242	39.98878	60.01633
37.74584	5.61763	0.00459512	86.7676	396.1758	40.03632	60.00402
37.87084	5.617227	0.004656894	86.7614	397.425	39.99799	59.99404
37.99584	5.61674	0.004589126	86.7539	398.6772	40.01092	59.9844
38.12084	5.616364	0.004442475	86.7481	399.926	40.00021	59.98995
38.24584	5.616085	0.004104516	86.7438	401.1768	39.97827	59.98994
38.37084	5.61578	0.004000286	86.7391	402.4267	39.99925	59.98362
38.49584	5.615482	0.004018211	86.7345	403.6769	40.00996	60.00509
38.62084	5.615185	0.004126144	86.7299	404.9281	40.00332	59.97755
38.74584	5.614796	0.004115624	86.7239	406.1776	39.99644	60.01156
38.87084	5.614452	0.004062418	86.7186	407.4278	39.98826	60.00574
38.99584	5.614029	0.004175372	86.712	408.6765	39.97537	59.99758
39.12084	5.613832	0.00419285	86.709	409.9272	40.00281	59.98915
39.24584	5.613656	0.004140041	86.7063	411.181	40.02009	59.96743
39.37084	5.6132	0.004211182	86.6992	412.4304	40.0326	59.95951
39.49584	5.612658	0.004181156	86.6909	413.6791	40.0112	59.99078
39.62084	5.61248	0.004078574	86.6881	414.9309	40.00776	59.9871
39.74584	5.612084	0.00380301	86.682	416.1816	39.98323	60.00493
39.87084	5.611726	0.003386281	86.6765	417.4298	39.97796	60.01778
39.99584	5.611694	0.003437431	86.676	418.6813	40.00298	60.0023
40.12084	5.611366	0.003787102	86.6709	419.9334	39.9801	59.9986
40.24584	5.6111	0.004287869	86.6668	421.1834	39.97338	60.01788
40.37084	5.610859	0.004518714	86.6631	422.434	39.97403	59.99896
40.49584	5.610182	0.00452705	86.6526	423.6856	39.99011	59.98721
40.62084	5.609604	0.004439542	86.6437	424.9374	40.00956	60.03384
40.74584	5.609374	0.004253744	86.6401	426.1863	39.99736	59.98158
40.87084	5.609311	0.003689276	86.6392	427.4362	40.02092	59.99617
40.99584	5.608892	0.003369335	86.6327	428.6868	40.03165	60.03301
41.12084	5.60861	0.003122025	86.6283	429.9375	40.02872	60.0094
41.24584	5.60827	0.003249088	86.6231	431.1876	39.98499	60.0108
41.37084	5.608235	0.003093902	86.6225	432.439	40.00219	60.01624
41.49584	5.607659	0.002837216	86.6136	433.691	39.97909	59.97852
41.62084	5.607688	0.002931686	86.6141	434.9406	40.00095	60.0406
41.74584	5.607421	0.003263877	86.61	436.1902	39.97465	59.99852
41.87084	5.607193	0.003440021	86.6064	437.4438	40.01032	59.97621
41.99584	5.606946	0.003543698	86.6026	438.6941	39.99224	59.96989
42.12084	5.606425	0.003531675	86.5946	439.9461	39.97743	60.01772
42.24584	5.606158	0.003525634	86.5905	441.1976	40.01086	59.9955
42.37084	5.606086	0.003430229	86.5893	442.4477	40.0116	59.9903
42.49584	5.605816	0.00326536	86.5852	443.6991	40.02739	60.00676
42.62084	5.60555	0.003105977	86.5811	444.9524	39.99967	59.98963
42.74584	5.605154	0.003270582	86.5749	446.2004	40.00186	60.02535
42.87084	5.604932	0.003676365	86.5715	447.4534	40.00228	60.00365
42.99584	5.604572	0.003787786	86.566	448.702	40.00656	60.0475
43.12084	5.60451	0.003876071	86.565	449.951	39.99502	60.00812
43.24584	5.604043	0.003903811	86.5578	451.2044	40.01704	60.03594
43.37084	5.603565	0.003933264	86.5504	452.4536	39.9765	59.97865
43.49584	5.603337	0.00391433	86.5469	453.7059	39.99216	60.00154
43.62084	5.603032	0.003780986	86.5422	454.9578	39.99859	60.00025
43.74584	5.602726	0.003548326	86.5374	456.2084	39.9673	59.98926
43.87084	5.602496	0.003616094	86.5339	457.4598	39.97358	60.01328
43.99584	5.602158	0.003772347	86.5287	458.7096	40.02385	60.01787
44.12084	5.601855	0.003933258	86.524	459.9602	40.01866	60.01418
44.24584	5.601611	0.003974992	86.5202	461.2102	40.00857	59.98563
44.37084	5.601301	0.003840097	86.5154	462.4629	40.01013	60.02246
44.49584	5.60077	0.003733872	86.5072	463.714	40.0169	60.00728
44.62084	5.600544	0.003670561	86.5037	464.9632	39.98156	59.96842
44.74584	5.600282	0.003497125	86.4997	466.215	40.01202	60.00818
44.87084	5.600188	0.00336446	86.4982	467.4658	40.00832	60.01024
44.99584	5.599716	0.003334032	86.491	468.7172	39.99469	59.99505
45.12084	5.599534	0.003302965	86.4881	469.9668	39.99532	60.02464
45.24584	5.599248	0.003229384	86.4837	471.2176	40.00978	59.99282
45.37084	5.598943	0.003078144	86.479	472.4703	40.00654	59.98308
45.49584	5.598662	0.003113638	86.4747	473.7208	39.9767	59.98258
45.62084	5.598445	0.003200828	86.4713	474.9716	40.01196	60.03005
45.74584	5.598443	0.003256685	86.4713	476.2224	39.99194	60.00018
45.87084	5.597828	0.003459645	86.4618	477.4746	40.01633	59.98766
45.99584	5.597662	0.003740532	86.4592	478.725	39.97529	60.00606
46.12084	5.597406	0.00380408	86.4553	479.977	40.0091	60.01718
46.24584	5.597016	0.003813925	86.4493	481.2283	39.9964	59.9887
46.37084	5.5967	0.003744634	86.4444	482.4782	39.99136	60.04816
46.49584	5.596415	0.003811696	86.44	483.7282	40.01965	59.97412
46.62084	5.59625	0.003775756	86.4374	484.9806	40.00112	60.00547
46.74584	5.595742	0.003702284	86.4296	486.2284	39.99539	60.03535
46.87084	5.595472	0.003648237	86.4254	487.4802	40.03525	59.96566
46.99584	5.595234	0.003585547	86.4217	488.7296	39.9946	59.99336
47.12084	5.59501	0.003618542	86.4183	489.9826	40.01022	59.98668
47.24584	5.594598	0.003519828	86.4119	491.233	39.98394	59.99031
47.37084	5.594431	0.00352564	86.4093	492.4834	40.02802	59.99271
47.49584	5.594135	0.003397462	86.4048	493.7343	39.99666	60.03412
47.62084	5.59376	0.003301007	86.399	494.9838	39.99776	59.97454
47.74584	5.593562	0.003264448	86.3959	496.2347	39.9834	59.999
47.87084	5.593313	0.003251296	86.3921	497.4885	40.01529	59.95586
47.99584	5.593093	0.003300989	86.3887	498.7374	40.00565	59.97182
48.12084	5.592835	0.00331517	86.3847	499.9894	40.03708	60.026
48.24584	5.592541	0.003350511	86.3801	501.2403	40.00457	60.00451
48.37084	5.592141	0.003361928	86.374	502.4906	40.00456	60.00196
48.49584	5.591844	0.003293245	86.3694	503.7396	39.99961	60.02178
48.62084	5.591709	0.003299889	86.3673	504.9898	39.99014	59.98848
48.74584	5.591454	0.003419254	86.3633	506.239	39.99222	59.99503
48.87084	5.59115	0.003544698	86.3586	507.4922	39.98791	59.99812
48.99584	5.590891	0.003882921	86.3546	508.7437	40.01398	59.99896
49.12084	5.590552	0.003871808	86.3494	509.9942	40.0028	59.99879
49.24584	5.590207	0.0038367	86.3441	511.2434	40.00922	60.00026
49.37084	5.589804	0.003677824	86.3379	512.4937	40.02683	59.98924
49.49584	5.589549	0.003475489	86.3339	513.7451	39.98919	59.99693
49.62084	5.589448	0.003348827	86.3324	514.9973	40.0285	59.99421
49.74584	5.588979	0.003493535	86.3251	516.248	39.96765	60.00156
49.87084	5.588806	0.003631485	86.3224	517.4996	40.003	59.98075
49.99584	5.588602	0.003783652	86.3193	518.75	40.03509	59.9815
50.12084	5.588142	0.00385065	86.3122	519.9992	40.0042	60.00226
50.24584	5.587754	0.003818924	86.3062	521.2485	39.97798	59.98809
50.37084	5.587518	0.00364078	86.3026	522.4998	40.02896	59.99976
50.49584	5.587326	0.003509016	86.2996	523.7517	39.99375	59.9854
50.62084	5.586941	0.003388996	86.2936	525.003	40.01936	59.98321
50.74584	5.5867	0.003384726	86.2899	526.2554	39.98686	59.99959
50.87084	5.58651	0.0034295	86.287	527.5057	39.9708	59.99526
50.99584	5.586078	0.003288882	86.2803	528.758	40.00697	59.97738
51.12084	5.585873	0.00328421	86.2771	530.0087	39.97374	59.98671
51.24584	5.585615	0.00329623	86.2732	531.2612	40.00619	59.99291
51.37084	5.585376	0.003197504	86.2695	532.5108	39.99456	60.01669
51.49584	5.585128	0.003329662	86.2656	533.7624	40.00531	60.00732
51.62084	5.584814	0.003434192	86.2608	535.0144	40.00054	60.02137
51.74584	5.584556	0.003577477	86.2568	536.2654	40.005	59.982
51.87084	5.58421	0.003747946	86.2515	537.5156	40.00365	59.98255
51.99584	5.583972	0.00331954	86.2478	538.7664	39.99782	59.9836
52.12084	5.583639	0.003499002	86.2426	540.0198	40.00874	60.00932
52.24584	5.5833	0.00368075	86.2374	541.2702	39.99998	60.00743
52.37084	5.58313	0.003576624	86.2348	542.52	40.01283	60.03188
52.49584	5.583322	0.003525448	86.2377	543.7724	39.98303	59.9804
52.62084	5.582247	0.003437068	86.2211	545.0206	40.00309	59.99418
52.74584	5.58243	0.003621334	86.224	546.2698	39.9889	60.01549
52.87084	5.582082	0.004004039	86.2186	547.524	40.02903	59.97686
52.99584	5.581623	0.003730357	86.2115	548.775	40.00455	60.01016
53.12084	5.581358	0.003417937	86.2074	550.027	39.99804	60.01448
53.24584	5.580921	0.003545825	86.2007	551.2758	39.98958	59.99543
53.37084	5.58054	0.003377216	86.1948	552.5261	39.99392	60.01217
53.49584	5.580555	0.00341041	86.195	553.7763	40.02022	59.97782
53.62084	5.58048	0.003703611	86.1938	555.0274	39.99967	60.03526
53.74584	5.580059	0.003967651	86.1873	556.2787	40.03257	59.9891
53.87084	5.5797	0.004155206	86.1818	557.5299	39.9908	60.02403
53.99584	5.579056	0.004351684	86.1719	558.7794	39.99298	59.92964
54.12084	5.578626	0.004147049	86.1652	560.0294	39.9909	60.01556
54.24584	5.578455	0.003986616	86.1626	561.2818	39.98928	59.99522
54.37084	5.5783	0.003565942	86.1602	562.5324	40.0011	59.99526
54.49584	5.577924	0.00324139	86.1544	563.7839	39.99628	60.0128
54.62084	5.577675	0.003373083	86.1505	565.0359	39.98894	59.98394
54.74584	5.57727	0.003526866	86.1443	566.2851	40.00681	60.00249
54.87084	5.577213	0.003334378	86.1434	567.5388	40.00608	59.99036
54.99584	5.576939	0.003273483	86.1392	568.7906	39.98859	59.9728
55.12084	5.576456	0.003246346	86.1317	570.0395	39.999	59.99902
55.24584	5.576347	0.003329714	86.13	571.2912	40.01188	60.00148
55.37084	5.576076	0.003284666	86.1258	572.544	39.99605	59.99631
55.49584	5.5758	0.003238733	86.1216	573.7925	40.01626	60.01358
55.62084	5.575424	0.003281778	86.1158	575.0448	39.99324	59.97895
55.74584	5.575325	0.003267882	86.1142	576.2963	39.98367	59.9858
55.87084	5.575102	0.00288854	86.1108	577.548	40.02986	59.9785
55.99584	5.574665	0.002872722	86.104	578.7978	39.9897	59.96286
56.12084	5.574507	0.00292848	86.1016	580.049	40.01266	60.03039
56.24584	5.574408	0.002905686	86.1001	581.299	39.98298	59.99272
56.37084	5.574268	0.00290373	86.0979	582.5518	40.0137	60.0206
56.49584	5.573769	0.002614132	86.0902	583.8018	40.0246	59.98526
56.62084	5.573565	0.002540475	86.087	585.0492	39.97847	59.985
56.74584	5.573256	0.002435527	86.0823	586.3002	40.02202	60.03051
56.87084	5.573032	0.002058527	86.0788	587.548	40.00735	59.99967
56.99584	5.573182	0.001570524	86.0811	588.8015	39.99933	60.01463
57.12084	5.57307	0.001282528	86.0794	590.0552	39.99292	59.97943
57.24584	5.572729	0.001019861	86.0741	591.3058	39.98837	59.99541
57.37084	5.572809	0.001294848	86.0754	592.5582	40.02191	60.00506
57.49584	5.572852	0.00106432	86.076	593.8091	40.005	59.96986
57.62084	5.572712	0.000927714	86.0739	595.063	40.013	59.99562
57.74584	5.572502	0.001059914	86.0706	596.3106	40.00922	60.00082
57.87084	5.572324	0.001203247	86.0679	597.5615	40.01134	59.9995
57.99584	5.57248	0.001206235	86.0703	598.8108	40.00038	59.99336
58.12084	5.572246	0.001242531	86.0667	600.061	40.02044	60.0091
58.24584	5.572182	0.001356639	86.0657	601.3124	39.99653	60.00074
58.37084	5.572179	0.001556766	86.0656	602.565	40.00583	60.00336
58.49584	5.57187	0.001285592	86.0609	603.8164	40.01239	60.01109
58.62084	5.57187	0.001188546	86.0609	605.0635	40.00228	60.02389
58.74584	5.571508	0.001352078	86.0553	606.3148	39.96682	59.97816
58.87084	5.571768	0.001245824	86.0593	607.5656	40.01859	59.99844
58.99584	5.571765	0.000948884	86.0592	608.8174	40.00739	59.9998
59.12084	5.571381	0.000918854	86.0533	610.0681	40.03521	59.9956
59.24584	5.571186	0.000912913	86.0503	611.3195	40.0111	59.98086
59.37084	5.571442	0.000531173	86.0542	612.5703	39.98737	59.99798
59.49584	5.57134	0.000206601	86.0527	613.822	39.99196	60.0124
59.62084	5.571035	6.54299e-05	86.048	615.0722	40.01215	60.01924
59.74584	5.571438	0.000548034	86.0542	616.3264	40.00714	59.99072
59.87084	5.571428	0.001162779	86.054	617.5781	40.02195	59.99176
59.99584	5.571137	0.001288398	86.0495	618.83	39.99963	59.99861
60.12084	5.571074	0.001334884	86.0486	620.0806	40.02407	59.99849
60.24584	5.570672	0.001509294	86.0424	621.3289	39.98998	59.99511
60.37084	5.570575	0.00094631	86.0409	622.5803	39.99472	59.973
60.49584	5.570777	0.000717366	86.044	623.8313	39.9914	59.98403
60.62084	5.570688	0.000466955	86.0426	625.0826	39.93619	59.98334
60.74584	5.570464	0.000639775	86.0391	626.332	40.01709	59.9883
60.87084	5.570874	0.000962431	86.0455	627.5795	39.98607	60.01211
60.99584	5.570411	0.001486233	86.0383	628.8329	39.99015	60.01834
61.12084	5.570342	0.001635296	86.0373	630.0822	39.99519	60.01513
61.24584	5.570154	0.001764044	86.0344	631.3318	39.98516	60.00132
61.37084	5.570059	0.001394334	86.0329	632.5822	39.996	60.05432
61.49584	5.569778	0.001126503	86.0285	633.836	40.01198	60.00244
61.62084	5.569874	0.000934652	86.03	635.087	40.004	60.0575
61.74584	5.56984	0.00089398	86.0295	636.3388	40.01644	60.02965
61.87084	5.569836	0.000864378	86.0294	637.5916	39.98946	60.02401
61.99584	5.569712	0.001056392	86.0275	638.8398	40.00816	60.01882
62.12084	5.569593	0.001358572	86.0257	640.092	39.99756	59.98545
62.24584	5.569402	0.001415731	86.0227	641.3428	40.04823	59.99298
62.37084	5.5693	0.001473058	86.0212	642.5924	39.98987	60.00032
62.49584	5.569244	0.001219088	86.0203	643.8451	40.02058	60.01468
62.62084	5.56904	0.000957222	86.0171	645.0963	39.9903	59.9989
62.74584	5.569108	0.001025548	86.0182	646.3484	39.96456	60.00586
62.87084	5.568736	0.001315505	86.0125	647.598	39.98152	59.98512
62.99584	5.569072	0.001591295	86.0176	648.8518	39.97792	60.01518
63.12084	5.568894	0.001437162	86.0149	650.103	40.0	59.98633
63.24584	5.568445	0.001238299	86.008	651.3518	40.01625	59.99961
63.37084	5.568274	0.001535278	86.0053	652.6024	39.99594	60.02099
63.49584	5.568332	0.001465838	86.0062	653.8516	39.97853	59.99934
63.62084	5.568401	0.001287057	86.0073	655.103	40.02122	59.99062
63.74584	5.568004	0.00106517	86.0011	656.3525	40.0032	59.98862
63.87084	5.56813	0.000968554	86.0031	657.6026	39.99854	60.0019
63.99584	5.567876	0.001389117	85.9992	658.853	39.984	60.00164
64.12084	5.567838	0.001426326	85.9986	660.1036	40.02311	59.98478
64.24584	5.56796	0.001338283	86.0005	661.355	39.99772	60.01532
64.37084	5.567742	0.001498745	85.9971	662.6072	40.00295	59.98943
64.49584	5.567391	0.001523372	85.9917	663.8582	39.99582	59.95668
64.62084	5.567341	0.001715331	85.9909	665.1106	40.00428	59.97726
64.74584	5.567207	0.001729451	85.9888	666.362	39.98347	60.01028
64.87084	5.567139	0.001384847	85.9878	667.6148	40.01073	60.02844
64.99584	5.567115	0.001093044	85.9874	668.865	40.00324	59.97398
65.12084	5.566906	0.001044276	85.9842	670.1163	40.00797	59.9943
65.24584	5.56677	0.000633699	85.9821	671.3632	39.99537	59.97629
65.37084	5.566873	0.00032583	85.9837	672.6153	39.97722	59.98549
65.49584	5.566713	9.5622e-05	85.9812	673.8638	40.00031	59.98624
65.62084	5.566793	0.000307547	85.9824	675.1178	40.00113	59.96674
65.74584	5.56693	0.000605053	85.9846	676.37	39.98709	60.00672
65.87084	5.566792	0.00071413	85.9824	677.6212	40.01416	59.99768
65.99584	5.566707	0.001097292	85.9811	678.8734	40.0158	59.98644
66.12084	5.56614	0.002128006	85.9724	680.1212	40.00794	60.02182
66.24584	5.566697	0.00223509	85.981	681.3714	39.98018	59.99922
66.37084	5.566438	0.002239812	85.977	682.6236	40.01944	60.00498
66.49584	5.565691	0.002407332	85.9654	683.8755	39.99653	60.00451
66.62084	5.565642	0.002348542	85.9647	685.1239	40.03372	60.03182
66.74584	5.56584	0.001359578	85.9677	686.377	39.96111	59.98054
66.87084	5.565232	0.00016517	85.9583	687.6288	40.01475	60.01314
66.99584	5.565056	-0.00056004	85.9556	688.8775	40.00828	59.9906
67.12084	5.56597	-1.3929e-05	85.9697	690.1256	39.99976	59.99568
67.24584	5.565935	0.000433379	85.9692	691.3768	39.99698	60.00078
67.37084	5.565957	0.000667624	85.9695	692.6257	40.03588	59.9958
67.49584	5.56557	0.001595703	85.9636	693.8741	40.03372	59.98698
67.62084	5.56503	0.00294028	85.9552	695.1239	40.00606	60.00837
67.74584	5.565056	0.003055045	85.9556	696.3738	39.97449	59.99851
67.87084	5.564869	0.002883513	85.9527	697.6288	40.01404	60.00149
67.99584	5.5646	0.002674334	85.9486	698.8816	40.00812	59.99914
68.12084	5.56419	0.003172124	85.9422	700.1324	40.01733	59.9934
68.24584	5.564138	0.003462994	85.9414	701.3835	39.99878	59.99624
68.37084	5.564004	0.003510318	85.9394	702.6336	39.98556	60.02377
68.49584	5.563482	0.00368531	85.9313	703.8855	39.98164	60.01182
68.62084	5.562965	0.003770828	85.9233	705.1386	39.98658	59.95715
68.74584	5.563232	0.003369458	85.9274	706.39	40.00408	59.98967
68.87084	5.562329	0.002873486	85.9135	707.6413	39.96356	59.9837
68.99584	5.562124	0.002627762	85.9103	708.8926	39.99595	60.0099
69.12084	5.562049	0.002748721	85.9092	710.1425	40.01672	60.0149
69.24584	5.562176	0.002648272	85.9111	711.3929	39.98172	60.02584
69.37084	5.56152	0.002935346	85.901	712.6439	39.98755	59.99
69.49584	5.561528	0.003542414	85.9011	713.8939	40.03068	59.9859
69.62084	5.56144	0.003892236	85.8998	715.1455	40.0066	59.98522
69.74584	5.560807	0.003735554	85.89	716.3962	40.0044	60.00852
69.87084	5.560445	0.003481345	85.8844	717.6458	39.99236	59.98808
69.99584	5.56018	0.003462682	85.8803	718.898	40.0128	60.00649
70.12084	5.559994	0.00306148	85.8774	720.1495	39.9773	60.01596
70.24584	5.559794	0.002735867	85.8743	721.4013	39.99847	59.98069
70.37084	5.559654	0.003025226	85.8722	722.6521	39.99024	59.98805
70.49584	5.559239	0.003365222	85.8658	723.9022	40.0101	60.01306
70.62084	5.559216	0.00342406	85.8654	725.1536	40.0382	59.981
70.74584	5.558744	0.00340337	85.8581	726.4061	39.9967	60.00947
70.87084	5.558322	0.003815981	85.8516	727.6581	40.0168	59.99921
70.99584	5.557993	0.004041698	85.8465	728.9099	40.00922	59.96572
71.12084	5.558168	0.004001702	85.8492	730.1634	40.0151	60.00072
71.24584	5.557486	0.004129178	85.8387	731.4138	39.99832	59.98762
71.37084	5.556949	0.00458931	85.8304	732.6612	39.9967	59.99564
71.49584	5.556837	0.004971191	85.8287	733.9103	40.0215	60.00422
71.62084	5.55635	0.004998516	85.8211	735.1631	40.00115	59.9795
71.74584	5.556004	0.00454152	85.8158	736.4119	39.98994	60.0091
71.87084	5.555362	0.004281126	85.8059	737.6647	40.02787	60.00171
71.99584	5.555227	0.003967179	85.8038	738.914	39.9867	60.01028
72.12084	5.554728	0.003103152	85.7961	740.1666	39.97709	60.01709
72.24584	5.554856	0.002813133	85.7981	741.4199	39.98721	59.99708
72.37084	5.554449	0.003188631	85.7918	742.6708	40.02221	60.01952
72.49584	5.554347	0.003379594	85.7902	743.9206	40.01526	59.96431
72.62084	5.554276	0.003895974	85.7891	745.1743	40.01436	60.00271
72.74584	5.553295	0.00440256	85.774	746.4225	40.02265	59.98266
72.87084	5.553199	0.004336889	85.7725	747.6726	40.03531	59.98032
72.99584	5.553057	0.004307339	85.7703	748.9239	40.00108	59.99344
73.12084	5.552372	0.00398502	85.7597	750.171	40.00664	60.01236
73.24584	5.552135	0.003569156	85.756	751.4261	40.0011	60.03537
73.37084	5.552115	0.003722655	85.7557	752.6806	40.00738	60.02245
73.49584	5.551809	0.00351491	85.751	753.9293	39.98059	59.97474
73.62084	5.551242	0.003534566	85.7422	755.1792	39.98812	59.9887
73.74584	5.551172	0.003803518	85.7412	756.4262	39.98522	59.9864
73.87084	5.55068	0.003766255	85.7336	757.6768	40.00234	59.97996
73.99584	5.55056	0.00357702	85.7317	758.9268	40.01154	60.00594
74.12084	5.550234	0.003742648	85.7267	760.1749	40.0048	60.00022
74.24584	5.549831	0.00390037	85.7205	761.425	39.99814	59.98458
74.37084	5.54966	0.003861785	85.7178	762.676	40.00433	59.97388
74.49584	5.549261	0.003959885	85.7116	763.9228	40.0195	60.00129
74.62084	5.548799	0.003742285	85.7045	765.1712	40.00078	60.02564
74.74584	5.548562	0.003402103	85.7009	766.4222	40.01467	60.03035
74.87084	5.548363	0.003197886	85.6978	767.6734	39.99794	59.97322
74.99584	5.547997	0.003368468	85.6921	768.9252	39.97903	59.97541
75.12084	5.548013	0.003376157	85.6924	770.1753	40.0051	60.00712
75.24584	5.54788	0.003609182	85.6903	771.4259	40.01624	59.99158
75.37084	5.5471	0.003295844	85.6783	772.6753	40.00882	59.98702
75.49584	5.546825	0.002804084	85.674	773.9244	39.99369	60.01151
75.62084	5.546768	0.002829386	85.6731	775.177	40.00758	60.01552
75.74584	5.546148	0.002312126	85.6636	776.4286	40.01166	59.9981
75.87084	5.546656	0.001668893	85.6714	777.6798	39.9652	59.9656
75.99584	5.546018	0.002613184	85.6616	778.9311	40.00594	60.02469
76.12084	5.546349	0.003422492	85.6667	780.1818	39.9915	59.99708
76.24584	5.546407	0.004122917	85.6676	781.432	40.01114	60.00263
76.37084	5.545406	0.004362854	85.6521	782.6852	40.01936	59.98298
76.49584	5.544692	0.003704019	85.6411	783.9368	39.98786	60.00388
76.62084	5.544428	0.003704062	85.637	785.1884	39.9978	60.0025
76.74584	5.544445	0.003202606	85.6373	786.439	40.0266	59.99914
76.87084	5.544078	0.002123394	85.6316	787.6876	40.00584	60.00878
76.99584	5.544152	0.001747836	85.6327	788.9439	39.99933	60.01997
77.12084	5.543954	0.001881766	85.6297	790.194	40.00504	59.99121
77.24584	5.543698	0.0024751	85.6257	791.4426	40.00933	59.98524
77.37084	5.543694	0.002985518	85.6257	792.6942	40.00374	60.0188
77.49584	5.543494	0.003525112	85.6226	793.946	40.0025	59.97826
77.62084	5.543228	0.004287206	85.6185	795.1964	40.0183	59.97881
77.74584	5.542396	0.004616896	85.6056	796.4462	40.01945	59.99818
77.87084	5.542187	0.004417187	85.6024	797.6964	39.99555	60.00078
77.99584	5.541719	0.004247693	85.5952	798.9493	40.0016	60.00176
78.12084	5.541359	0.004124915	85.5896	800.1988	39.99422	59.99117
78.24584	5.541403	0.003969343	85.5903	801.45	39.99678	59.99363
78.37084	5.541291	0.004132236	85.5885	802.7005	39.99244	59.97356
78.49584	5.540325	0.004097918	85.5736	803.9484	39.99481	60.01844
78.62084	5.54025	0.003897964	85.5725	805.1987	40.00646	59.99878
78.74584	5.539824	0.00390044	85.5659	806.4509	40.0006	60.00742
78.87084	5.539529	0.003352788	85.5613	807.702	40.0065	59.98586
78.99584	5.539099	0.003157844	85.5547	808.9529	40.00344	59.99507
79.12084	5.539442	0.003416519	85.56	810.2044	39.98462	60.02672
79.24584	5.538968	0.003565155	85.5527	811.4538	40.02089	60.0025
79.37084	5.538506	0.004129235	85.5455	812.7028	40.00531	59.99382
79.49584	5.538075	0.004643354	85.5389	813.9522	40.01559	60.01353
79.62084	5.537762	0.004766259	85.534	815.2051	39.99435	59.97747
79.74584	5.53735	0.004972402	85.5277	816.4555	39.99806	59.99775
79.87084	5.537031	0.004917846	85.5227	817.7066	39.9982	60.0103
79.99584	5.536414	0.004573162	85.5132	818.958	40.0116	59.99163
80.12084	5.536157	0.004403744	85.5092	820.205	39.99884	59.9852
80.24584	5.535796	0.00441381	85.5037	821.46	40.0141	60.04244
80.37084	5.535559	0.004483728	85.5	822.7144	40.00365	60.0043
80.49584	5.535338	0.004687952	85.4966	823.9644	40.00385	59.98479
80.62084	5.534932	0.005077235	85.4903	825.2131	39.99628	60.01745
80.74584	5.53427	0.005596144	85.4801	826.4644	40.01791	59.99185
80.87084	5.533858	0.006257706	85.4737	827.7145	39.99804	60.00479
80.99584	5.53338	0.005587796	85.4664	828.9651	39.99158	60.02132
81.12084	5.532818	0.005227156	85.4577	830.2147	40.00382	59.99687
81.24584	5.53215	0.005043051	85.4474	831.4668	40.02588	60.0013
81.37084	5.532116	0.005120172	85.4468	832.7186	40.00733	60.0146
81.49584	5.531872	0.005328974	85.4431	833.97	40.00443	60.0237
81.62084	5.531406	0.005638299	85.4359	835.2197	39.98828	60.02178
81.74584	5.530761	0.006636909	85.4259	836.4686	40.00548	59.98478
81.87084	5.530094	0.0082498	85.4156	837.7194	39.99845	59.98943
81.99584	5.529581	0.008468503	85.4077	838.9706	39.9968	60.01171
82.12084	5.528984	0.008705789	85.3985	840.2174	39.99561	59.99739
82.24584	5.527786	0.009580191	85.38	841.4669	39.99949	60.01665
82.37084	5.52724	0.01024757	85.3715	842.7188	39.99011	59.99794
82.49584	5.526731	0.01074628	85.3637	843.9672	40.01282	59.98552
82.62084	5.525745	0.01122687	85.3484	845.2162	39.98746	60.0366
82.74584	5.524336	0.01218423	85.3267	846.4582	39.99344	59.99887
82.87084	5.523687	0.01313984	85.3166	847.7148	40.0064	60.01929
82.99584	5.522634	0.01340319	85.3004	848.9662	39.9738	60.04366
83.12084	5.521336	0.01336613	85.2803	850.2178	40.02756	59.99338
83.24584	5.519892	0.01403302	85.258	851.4681	40.0076	59.99291
83.37084	5.519335	0.01501784	85.2494	852.7192	39.98805	59.9958
83.49584	5.518078	0.01600639	85.23	853.9719	39.99074	59.9709
83.62084	5.516838	0.01686329	85.2109	855.2222	40.01569	59.9765
83.74584	5.515324	0.01758127	85.1875	856.4725	39.96778	59.98914
83.87084	5.51347	0.01842796	85.1588	857.7264	40.02036	60.01709
83.99584	5.51196	0.01877417	85.1355	858.9745	40.02894	60.01538
84.12084	5.510626	0.01932955	85.1149	860.2244	39.99894	59.97645
84.24584	5.50933	0.01951554	85.0949	861.4744	40.01446	59.98962
84.37084	5.507402	0.02012231	85.0651	862.7403	39.99265	60.01074
84.49584	5.505842	0.02111483	85.041	863.982	39.9735	59.99164
84.62084	5.50388	0.02236153	85.0107	865.2286	39.99925	60.0146
84.74584	5.50249	0.02283218	84.9892	866.4774	40.00942	60.00938
84.87084	5.500356	0.02295552	84.9563	867.7285	40.02255	59.99266
84.99584	5.49863	0.02335025	84.9296	868.9775	40.00144	60.0192
85.12084	5.496163	0.02430396	84.8915	870.2269	40.01376	59.97361
85.24584	5.494824	0.0245511	84.8708	871.4812	39.97574	59.96426
85.37084	5.492782	0.02480345	84.8393	872.7328	39.98259	59.98574
85.49584	5.490568	0.0251942	84.8051	873.9821	39.97592	59.99287
85.62084	5.488124	0.02511257	84.7674	875.2324	39.99822	60.02778
85.74584	5.486604	0.02498774	84.7439	876.4868	39.9846	60.00235
85.87084	5.484109	0.0242918	84.7053	877.7362	40.02271	59.99992
85.99584	5.482126	0.02337896	84.6747	878.9892	39.98657	60.012
86.12084	5.481572	0.02267916	84.6662	880.24	40.00062	60.00668
86.24584	5.47883	0.02127254	84.6238	881.4887	40.00638	59.9951
86.37084	5.476868	0.02012955	84.5935	882.7398	40.00076	60.00654
86.49584	5.475288	0.01927659	84.5691	883.9875	39.99368	59.99261
86.62084	5.473956	0.01837595	84.5485	885.2391	40.02452	60.00132
86.74584	5.472622	0.01682251	84.5279	886.4872	39.9729	60.0128
86.87084	5.471059	0.0160193	84.5038	887.7359	39.97035	59.98196
86.99584	5.469812	0.01499806	84.4845	888.9848	39.99348	59.98768
87.12084	5.4686	0.01395058	84.4658	890.2355	39.99788	60.02668
87.24584	5.467959	0.01291388	84.4559	891.4856	39.99656	60.00829
87.37084	5.46637	0.0123882	84.4313	892.7369	40.01956	60.00034
87.49584	5.466001	0.01150696	84.4256	893.9879	39.9919	60.00271
87.62084	5.465011	0.01047728	84.4104	895.2418	39.99187	60.0176
87.74584	5.463642	0.009385906	84.3892	896.4901	39.98676	60.00564
87.87084	5.46298	0.008392578	84.379	897.7434	39.98822	59.98849
87.99584	5.46273	0.007373702	84.3751	898.993	39.9824	60.00786
88.12084	5.462266	0.006239846	84.368	900.245	40.00098	60.01619
88.24584	5.46167	0.005107772	84.3588	901.4941	40.0091	60.0153
88.37084	5.461382	0.004221766	84.3543	902.7446	39.98388	60.01412
88.49584	5.460834	0.002983441	84.3458	903.9993	40.03878	60.02906
88.62084	5.460486	0.001581621	84.3405	905.2486	40.01646	59.99643
88.74584	5.460528	0.001397235	84.3411	906.4999	39.98228	60.02824
88.87084	5.460834	0.001366889	84.3458	907.7514	39.98008	60.01694
88.99584	5.46095	0.001119259	84.3476	909.0008	40.01972	60.01182
89.12084	5.460758	0.000910573	84.3447	910.2525	39.9934	59.9641
89.24584	5.459614	0.000714206	84.327	911.5066	40.01288	59.9884
89.37084	5.460118	0.000740891	84.3348	912.7553	39.98138	60.00113
89.49584	5.460376	0.000137734	84.3388	914.0058	39.99673	60.00532
89.62084	5.460506	-0.00051064	84.3408	915.255	40.01098	59.98487
89.74584	5.460562	0.000137571	84.3416	916.5064	40.01653	59.97176
89.87084	5.460126	0.001147775	84.3349	917.7564	40.02484	60.0137
89.99584	5.460533	0.00149204	84.3412	919.0038	39.97776	59.99193
90.12084	5.460113	0.001376145	84.3347	920.2564	40.01023	59.95684
90.24584	5.459371	0.000749821	84.3232	921.5094	39.99639	59.98516
90.37084	5.459739	2.88907e-06	84.3289	922.7558	40.01155	60.00264
90.49584	5.45998	-0.00076764	84.3327	924.0058	39.9848	59.97379
90.62084	5.45978	-0.0019601	84.3296	925.2558	40.02118	60.00884
90.74584	5.460178	-0.0023169	84.3357	926.5068	39.9793	60.00601
90.87084	5.460904	-0.0034926	84.3469	927.7581	40.0035	59.99969
90.99584	5.460449	-0.0028354	84.3399	929.009	39.96884	59.995
91.12084	5.461246	-0.0023045	84.3522	930.2599	40.02034	59.99039
91.24584	5.459687	-0.0025845	84.3281	931.5079	40.022	59.99538
91.37084	5.462291	-0.0028034	84.3683	932.7595	39.99365	59.99244
91.49584	5.46065	-0.0033223	84.343	934.0094	39.97537	59.98711
91.62084	5.461678	-0.0032437	84.3589	935.2579	39.96602	60.00418
91.74584	5.462222	-0.0027071	84.3673	936.5144	39.99006	60.0182
91.87084	5.46287	-0.0024579	84.3773	937.765	39.9801	59.9863
91.99584	5.46304	-0.0012228	84.3799	939.0163	39.98905	60.00368
92.12084	5.46272	-2.3956e-05	84.375	940.2662	39.99022	59.97162
92.24584	5.462436	0.000571068	84.3706	941.5156	39.99071	60.03294
92.37084	5.462088	0.001338059	84.3652	942.7669	40.00659	60.00117
92.49584	5.462486	0.000908094	84.3714	944.0179	40.01985	60.01533
92.62084	5.462466	0.000170843	84.371	945.2716	39.98189	60.02355
92.70418	5.462182	-0.00072548	84.3667	946.1036	40.01875	59.98154