File: charts/20230801/TGA/SATURADAS/Cs-ZSCBA.txt
28/04/2023 13:21:47
User name: Gabs
Comments: Amostra para Mariana. 5°C/min -> 900°C Programa 3.
Number	time(s)	mass(g)	Relative_mass(%)	Sample_T(C)	PV(C)	SV(C)
1.0	0.0	0.06156	99.91884	26.5	63.0	60.0
4.0	4.0	0.06011	97.56533	37.5	86.0	61.0
7.0	17.872	0.06007	97.50041	42.0	95.0	62.0
10.0	23.872	0.06012	97.58156	46.0	104.0	62.0
13.0	29.872	0.06012	97.58156	49.25	110.0	63.0
16.0	35.872	0.06013	97.59779	52.0	115.0	63.0
19.0	41.872	0.06011	97.56533	54.5	119.0	63.0
22.0	47.872	0.0601	97.5491	56.25	123.0	63.0
25.0	53.872	0.06008	97.51664	58.25	124.0	63.0
28.0	59.872	0.06006	97.48417	60.0	127.0	63.0
31.0	65.872	0.06003	97.43548	61.5	128.0	63.0
34.0	71.872	0.06001	97.40302	63.0	129.0	63.0
37.0	77.873	0.05998	97.35433	64.0	131.0	63.0
40.0	83.875	0.05996	97.32186	65.25	131.0	63.0
43.0	89.875	0.05988	97.19201	66.25	131.0	63.0
46.0	95.875	0.0598	97.06217	67.25	132.0	63.0
49.0	101.875	0.05981	97.0784	68.5	132.0	63.0
54.0	111.875	0.0598	97.06217	69.5	132.0	63.0
57.0	117.875	0.05978	97.0297	70.25	132.0	63.0
61.0	125.875	0.05968	96.86739	71.25	132.0	63.0
65.0	133.875	0.05957	96.68885	72.0	131.0	63.0
69.0	141.875	0.05958	96.70508	72.75	131.0	63.0
74.0	151.875	0.05958	96.70508	73.5	131.0	63.0
82.0	167.875	0.05949	96.559	74.25	129.0	63.0
92.0	187.875	0.05939	96.39669	75.0	128.0	63.0
109.0	221.875	0.05929	96.23438	75.75	127.0	63.0
275.0	553.876	0.05871	95.29297	68.25	107.0	74.0
323.0	649.877	0.05874	95.34167	65.5	103.0	82.0
358.0	719.879	0.05879	95.42282	63.5	102.0	88.0
391.0	785.887	0.05886	95.53644	61.75	99.0	93.0
566.0	1135.891	0.0584	94.78981	76.5	124.0	122.0
571.0	1145.891	0.05835	94.70865	77.25	125.0	123.0
575.0	1153.891	0.05833	94.67619	78.0	127.0	124.0
580.0	1163.892	0.05831	94.64373	78.75	128.0	124.0
588.0	1179.892	0.05833	94.67619	79.5	128.0	126.0
596.0	1195.892	0.05826	94.56257	80.25	129.0	127.0
600.0	1203.892	0.05823	94.51388	81.0	129.0	128.0
604.0	1211.892	0.0582	94.46518	81.75	131.0	128.0
609.0	1221.892	0.05819	94.44895	82.5	132.0	129.0
615.0	1233.892	0.05818	94.43272	83.25	133.0	130.0
623.0	1249.892	0.05815	94.38403	84.0	133.0	132.0
629.0	1261.892	0.05808	94.27041	84.75	134.0	133.0
633.0	1269.892	0.05804	94.20549	85.5	136.0	133.0
637.0	1277.892	0.058	94.14056	86.25	137.0	134.0
642.0	1287.892	0.05802	94.17302	87.0	137.0	135.0
650.0	1303.892	0.058	94.14056	87.75	138.0	136.0
658.0	1319.892	0.05796	94.07564	88.5	138.0	137.0
663.0	1329.892	0.05788	93.94579	89.25	140.0	138.0
667.0	1337.892	0.05786	93.91333	90.0	141.0	139.0
673.0	1349.892	0.05784	93.88086	90.75	142.0	140.0
681.0	1365.892	0.05781	93.83217	91.5	142.0	141.0
687.0	1377.892	0.05772	93.68609	92.5	143.0	142.0
690.0	1383.892	0.05767	93.60493	93.25	145.0	143.0
694.0	1391.892	0.05765	93.57247	94.0	146.0	143.0
699.0	1401.892	0.05764	93.55624	94.75	147.0	144.0
707.0	1417.892	0.05765	93.57247	95.5	147.0	146.0
714.0	1431.892	0.05757	93.44262	96.25	148.0	147.0
719.0	1441.892	0.05752	93.36147	97.0	148.0	147.0
723.0	1449.892	0.05749	93.31277	97.75	150.0	148.0
729.0	1461.892	0.05749	93.31277	98.5	151.0	149.0
736.0	1475.892	0.05744	93.23162	99.25	152.0	150.0
741.0	1485.892	0.05739	93.15046	100.0	152.0	151.0
745.0	1493.892	0.05735	93.08554	100.75	153.0	152.0
750.0	1503.892	0.05733	93.05308	101.5	155.0	153.0
756.0	1515.892	0.05731	93.02061	102.25	156.0	154.0
765.0	1533.892	0.05726	92.93946	103.0	156.0	155.0
770.0	1543.892	0.05721	92.8583	103.75	157.0	156.0
774.0	1551.892	0.05716	92.77715	104.5	158.0	157.0
777.0	1557.892	0.05712	92.71222	105.25	159.0	157.0
781.0	1565.892	0.05707	92.63107	106.0	159.0	158.0
785.0	1573.892	0.05705	92.5986	106.75	161.0	158.0
791.0	1585.892	0.05704	92.58237	107.5	162.0	159.0
802.0	1607.894	0.05699	92.50122	108.25	162.0	161.0
807.0	1617.894	0.05693	92.40383	109.0	162.0	162.0
810.0	1623.894	0.05687	92.30644	109.75	163.0	163.0
814.0	1631.894	0.05683	92.24152	110.75	166.0	163.0
818.0	1639.894	0.05681	92.20906	111.5	167.0	164.0
822.0	1647.894	0.05681	92.20906	112.25	168.0	165.0
830.0	1663.896	0.05677	92.14413	113.0	168.0	166.0
840.0	1683.896	0.0567	92.03051	113.75	168.0	168.0
844.0	1691.896	0.05665	91.94936	114.5	169.0	168.0
848.0	1699.897	0.05658	91.83574	115.25	171.0	169.0
852.0	1707.897	0.05655	91.78705	116.0	172.0	170.0
857.0	1717.897	0.05652	91.73835	116.75	173.0	170.0
866.0	1735.897	0.05643	91.59227	117.5	173.0	172.0
873.0	1749.898	0.05645	91.62474	118.25	173.0	173.0
876.0	1755.898	0.05641	91.55981	119.0	174.0	174.0
881.0	1765.898	0.05633	91.42996	120.25	177.0	174.0
886.0	1775.898	0.0563	91.38127	121.0	178.0	175.0
890.0	1783.898	0.05627	91.33258	121.75	178.0	176.0
898.0	1799.898	0.05624	91.28388	122.5	179.0	177.0
907.0	1817.898	0.05618	91.1865	123.25	179.0	179.0
912.0	1827.898	0.05613	91.10534	124.0	180.0	180.0
915.0	1833.898	0.0561	91.05665	124.75	182.0	180.0
918.0	1839.898	0.05606	90.99172	125.5	182.0	181.0
923.0	1849.898	0.05604	90.95926	126.25	183.0	181.0
931.0	1865.898	0.05601	90.91057	127.0	184.0	183.0
940.0	1883.898	0.05592	90.76449	127.75	184.0	184.0
944.0	1891.898	0.05587	90.68333	128.5	185.0	185.0
947.0	1897.898	0.0558	90.56971	129.25	186.0	185.0
951.0	1905.898	0.05577	90.52102	130.5	188.0	186.0
955.0	1913.898	0.05576	90.50479	131.25	189.0	187.0
964.0	1931.898	0.0557	90.4074	132.0	190.0	188.0
975.0	1953.9	0.05553	90.13147	132.75	190.0	190.0
980.0	1963.9	0.05537	89.87177	133.5	191.0	191.0
984.0	1971.9	0.05542	89.95293	134.75	192.0	191.0
987.0	1977.9	0.05541	89.9367	135.5	194.0	192.0
990.0	1983.9	0.05542	89.95293	136.25	195.0	192.0
995.0	1993.9	0.05538	89.88801	137.0	196.0	193.0
1005.0	2013.9	0.05532	89.79062	137.75	196.0	195.0
1014.0	2031.9	0.05524	89.66077	138.5	196.0	196.0
1018.0	2039.9	0.05516	89.53092	139.25	197.0	197.0
1021.0	2045.9	0.05511	89.44976	140.25	199.0	198.0
1026.0	2055.9	0.05508	89.40107	141.25	201.0	198.0
1033.0	2069.9	0.05503	89.31992	142.0	201.0	200.0
1043.0	2089.9	0.05496	89.2063	142.75	201.0	201.0
1047.0	2097.9	0.05491	89.12514	143.5	202.0	202.0
1050.0	2103.9	0.05484	89.01152	144.25	203.0	202.0
1055.0	2113.901	0.05479	88.93037	145.25	204.0	203.0
1060.0	2123.902	0.05476	88.88168	146.0	206.0	204.0
1068.0	2139.903	0.05472	88.81675	146.75	206.0	205.0
1076.0	2155.903	0.0546	88.62198	147.5	207.0	207.0
1080.0	2163.903	0.05457	88.57328	148.25	208.0	207.0
1084.0	2171.905	0.0545	88.45967	149.0	209.0	208.0
1088.0	2179.905	0.05448	88.4272	149.75	209.0	209.0
1093.0	2189.905	0.05442	88.32982	150.5	210.0	210.0
1098.0	2199.905	0.05437	88.24866	151.25	211.0	210.0
1104.0	2211.905	0.05431	88.15127	152.0	213.0	211.0
1109.0	2221.905	0.05425	88.05389	152.75	213.0	212.0
1120.0	2243.905	0.05418	87.94027	153.5	213.0	214.0
1124.0	2251.905	0.0541	87.81042	154.25	214.0	215.0
1127.0	2257.905	0.05404	87.71303	155.25	215.0	215.0
1130.0	2263.905	0.054	87.64811	156.0	217.0	216.0
1134.0	2271.905	0.05397	87.59942	156.75	217.0	216.0
1140.0	2283.905	0.0539	87.4858	157.5	218.0	217.0
1147.0	2297.905	0.05384	87.38841	158.25	219.0	219.0
1151.0	2305.906	0.05378	87.29102	159.0	219.0	219.0
1156.0	2315.906	0.0537	87.16118	159.75	221.0	220.0
1163.0	2329.906	0.05365	87.08002	160.5	222.0	221.0
1172.0	2347.906	0.05355	86.91771	161.25	222.0	223.0
1176.0	2355.906	0.05348	86.80409	162.0	223.0	223.0
1179.0	2361.908	0.05343	86.72293	163.0	224.0	224.0
1182.0	2367.909	0.05338	86.64178	163.75	225.0	224.0
1186.0	2375.909	0.05335	86.59309	164.5	226.0	225.0
1192.0	2387.91	0.05332	86.54439	165.25	226.0	226.0
1199.0	2401.91	0.05321	86.36585	166.0	227.0	227.0
1203.0	2409.91	0.05315	86.26846	166.75	229.0	228.0
1208.0	2419.91	0.05311	86.20354	167.5	230.0	229.0
1217.0	2437.91	0.05304	86.08992	168.25	230.0	230.0
1222.0	2447.91	0.05294	85.92761	169.0	231.0	231.0
1225.0	2453.91	0.05289	85.84645	169.75	232.0	231.0
1228.0	2459.91	0.05283	85.74907	170.5	233.0	232.0
1231.0	2465.91	0.0528	85.70037	171.25	233.0	232.0
1235.0	2473.91	0.05277	85.65168	172.0	234.0	233.0
1243.0	2489.91	0.05269	85.52183	172.75	235.0	234.0
1248.0	2499.91	0.05263	85.42444	173.5	235.0	235.0
1252.0	2507.91	0.05255	85.2946	174.25	237.0	236.0
1259.0	2521.91	0.05242	85.08359	175.0	238.0	237.0
1266.0	2537.457	0.05231	84.90505	175.75	238.0	238.0
1269.0	2543.458	0.05238	85.01867	176.5	239.0	239.0
1272.0	2549.458	0.05229	84.87259	177.25	240.0	239.0
1276.0	2557.458	0.05225	84.80766	178.0	241.0	240.0
1282.0	2569.458	0.05217	84.67781	179.0	242.0	241.0
1288.0	2581.458	0.05211	84.58043	179.75	242.0	242.0
1293.0	2591.459	0.05203	84.45058	180.5	243.0	243.0
1297.0	2599.46	0.05198	84.36942	181.25	245.0	244.0
1304.0	2613.46	0.05193	84.28826	182.0	246.0	245.0
1314.0	2633.461	0.05179	84.06103	182.75	246.0	246.0
1318.0	2641.461	0.05172	83.94741	183.5	247.0	247.0
1322.0	2649.461	0.05164	83.81756	184.75	248.0	248.0
1328.0	2661.461	0.05157	83.70394	185.75	249.0	249.0
1333.0	2671.461	0.05148	83.55786	186.5	250.0	250.0
1338.0	2681.461	0.05145	83.50917	187.25	250.0	250.0
1342.0	2689.461	0.05137	83.37932	188.0	251.0	251.0
1347.0	2699.464	0.0513	83.2657	189.0	252.0	252.0
1351.0	2707.464	0.05125	83.18455	189.75	254.0	253.0
1361.0	2727.466	0.05114	83.00601	190.5	254.0	254.0
1366.0	2737.466	0.05105	82.85993	191.25	255.0	255.0
1370.0	2745.467	0.05097	82.73008	192.0	256.0	256.0
1374.0	2753.468	0.05092	82.64892	192.75	257.0	256.0
1377.0	2759.468	0.05087	82.56776	193.5	257.0	257.0
1383.0	2771.468	0.05079	82.43792	194.25	258.0	258.0
1387.0	2779.469	0.05075	82.37299	194.75	259.0	259.0
1392.0	2789.473	0.05067	82.24314	196.0	260.0	259.0
1397.0	2799.473	0.05058	82.09706	196.75	260.0	260.0
1402.0	2809.473	0.05052	81.99968	197.75	261.0	261.0
1407.0	2819.473	0.05044	81.86983	198.5	263.0	262.0
1415.0	2835.474	0.05037	81.75621	199.25	263.0	263.0
1424.0	2853.475	0.05023	81.52897	200.0	264.0	265.0
1427.0	2859.475	0.05018	81.44782	200.75	265.0	265.0
1430.0	2865.475	0.05012	81.35043	201.5	266.0	266.0
1433.0	2871.475	0.05009	81.30174	202.25	267.0	266.0
1437.0	2879.475	0.05005	81.23681	203.0	268.0	267.0
1444.0	2893.475	0.04998	81.12319	203.75	268.0	268.0
1449.0	2903.475	0.0499	80.99335	204.5	269.0	269.0
1453.0	2911.475	0.04983	80.87973	205.25	270.0	269.0
1456.0	2917.475	0.0498	80.83103	206.0	270.0	270.0
1460.0	2925.475	0.04975	80.74988	206.75	271.0	271.0
1464.0	2933.475	0.0497	80.66872	207.5	271.0	271.0
1472.0	2949.475	0.04962	80.53887	208.25	273.0	273.0
1479.0	2963.475	0.04953	80.39279	209.0	274.0	274.0
1484.0	2973.475	0.04947	80.29541	209.75	275.0	275.0
1487.0	2979.475	0.04944	80.24671	210.5	275.0	275.0
1492.0	2989.475	0.04937	80.1331	211.25	276.0	276.0
1495.0	2995.475	0.04934	80.0844	212.0	277.0	276.0
1501.0	3007.475	0.04925	79.93832	213.0	278.0	277.0
1507.0	3019.475	0.0492	79.85717	214.0	279.0	278.0
1511.0	3027.475	0.04914	79.75978	214.75	279.0	279.0
1515.0	3035.475	0.04911	79.71109	215.5	280.0	280.0
1520.0	3045.475	0.04906	79.62993	216.25	281.0	281.0
1524.0	3053.475	0.04901	79.54877	217.0	281.0	281.0
1529.0	3063.475	0.04895	79.45139	217.75	283.0	282.0
1538.0	3081.475	0.04889	79.354	218.5	283.0	284.0
1543.0	3091.475	0.04882	79.24038	219.25	284.0	284.0
1546.0	3097.475	0.04878	79.17546	220.0	285.0	285.0
1549.0	3103.476	0.04874	79.11053	220.75	286.0	285.0
1553.0	3111.476	0.04872	79.07807	221.5	286.0	286.0
1558.0	3121.479	0.04866	78.98068	222.25	287.0	287.0
1562.0	3129.481	0.04863	78.93199	223.0	288.0	288.0
1566.0	3137.484	0.04859	78.86707	223.75	288.0	288.0
1570.0	3145.487	0.04855	78.80214	224.5	289.0	289.0
1575.0	3155.489	0.04851	78.73722	225.25	290.0	290.0
1578.0	3161.49	0.04848	78.68852	226.0	291.0	290.0
1584.0	3173.491	0.04845	78.63983	226.75	291.0	291.0
1593.0	3191.491	0.0484	78.55868	227.5	293.0	293.0
1602.0	3209.491	0.04832	78.42883	228.25	294.0	294.0
1605.0	3215.491	0.04827	78.34767	229.0	294.0	295.0
1608.0	3221.491	0.04823	78.28275	229.75	295.0	295.0
1612.0	3229.491	0.04821	78.25028	230.75	296.0	296.0
1616.0	3237.491	0.04818	78.20159	231.75	297.0	297.0
1622.0	3249.491	0.04814	78.13667	232.5	298.0	298.0
1626.0	3257.491	0.0481	78.07174	233.25	298.0	298.0
1630.0	3265.492	0.04808	78.03928	234.0	299.0	299.0
1635.0	3275.492	0.04803	77.95812	234.75	300.0	300.0
1639.0	3283.493	0.04801	77.92566	235.5	300.0	300.0
1643.0	3291.493	0.04799	77.8932	236.25	301.0	301.0
1647.0	3299.493	0.04796	77.84451	237.0	302.0	302.0
1651.0	3307.493	0.04793	77.79581	237.75	304.0	302.0
1667.0	3339.493	0.04787	77.69843	238.5	304.0	305.0
1670.0	3345.493	0.04784	77.64973	239.25	305.0	306.0
1673.0	3351.493	0.04782	77.61727	240.25	306.0	306.0
1676.0	3357.493	0.04778	77.55235	241.25	307.0	306.0
1679.0	3363.493	0.04775	77.50365	242.0	308.0	307.0
1683.0	3371.493	0.04775	77.50365	242.75	308.0	308.0
1690.0	3385.493	0.04772	77.45496	243.5	309.0	309.0
1697.0	3399.493	0.04766	77.35757	244.5	309.0	310.0
1701.0	3407.497	0.04762	77.29265	245.5	311.0	311.0
1704.0	3413.497	0.0476	77.26019	246.25	312.0	311.0
1707.0	3419.497	0.04759	77.24395	247.0	312.0	312.0
1712.0	3429.497	0.04757	77.21149	247.75	313.0	312.0
1717.0	3439.499	0.04756	77.19526	248.5	313.0	313.0
1723.0	3451.502	0.04752	77.13034	249.25	314.0	314.0
1727.0	3459.502	0.04751	77.1141	250.0	316.0	315.0
1734.0	3473.502	0.0475	77.09787	250.75	317.0	316.0
1745.0	3495.502	0.04744	77.00049	251.5	317.0	318.0
1748.0	3501.502	0.04741	76.95179	252.25	318.0	318.0
1751.0	3507.502	0.04738	76.9031	253.25	319.0	319.0
1755.0	3515.502	0.04734	76.83818	254.25	320.0	320.0
1759.0	3523.502	0.04732	76.80571	255.25	321.0	320.0
1764.0	3533.504	0.04733	76.82194	256.0	321.0	321.0
1769.0	3543.507	0.04732	76.80571	256.75	322.0	322.0
1774.0	3553.507	0.04729	76.75702	257.75	323.0	323.0
1777.0	3559.507	0.04726	76.70833	258.5	323.0	323.0
1781.0	3567.507	0.04726	76.70833	259.25	324.0	324.0
1787.0	3579.507	0.04722	76.6434	260.0	325.0	325.0
1792.0	3589.507	0.0472	76.61094	260.75	326.0	326.0
1796.0	3597.507	0.04717	76.56225	261.5	326.0	326.0
1799.0	3603.507	0.04714	76.51355	262.25	327.0	327.0
1805.0	3615.507	0.04712	76.48109	263.0	329.0	328.0
1819.0	3643.507	0.04708	76.41617	263.75	329.0	330.0
1822.0	3649.507	0.04706	76.3837	264.75	330.0	331.0
1825.0	3655.507	0.04704	76.35124	265.75	331.0	331.0
1829.0	3663.507	0.04702	76.31878	266.75	332.0	332.0
1832.0	3669.507	0.047	76.28632	267.5	333.0	332.0
1838.0	3681.507	0.04699	76.27009	268.25	333.0	333.0
1844.0	3693.507	0.04698	76.25385	269.0	334.0	334.0
1848.0	3701.507	0.04695	76.20516	269.75	335.0	335.0
1851.0	3707.507	0.04692	76.15647	270.5	335.0	336.0
1855.0	3715.507	0.0469	76.12401	271.25	336.0	336.0
1858.0	3721.507	0.04687	76.07531	272.0	337.0	337.0
1863.0	3731.507	0.04687	76.07531	272.75	338.0	338.0
1869.0	3743.507	0.04688	76.09154	273.5	338.0	339.0
1873.0	3751.507	0.04687	76.07531	274.25	339.0	339.0
1876.0	3757.508	0.04683	76.01039	275.0	340.0	340.0
1880.0	3765.508	0.04682	75.99416	275.75	341.0	340.0
1884.0	3773.508	0.04679	75.94546	276.5	341.0	341.0
1890.0	3785.508	0.04679	75.94546	277.25	343.0	342.0
1900.0	3805.508	0.04675	75.88054	278.0	343.0	344.0
1905.0	3815.508	0.04672	75.83185	278.75	344.0	345.0
1908.0	3821.508	0.04671	75.81561	279.5	345.0	345.0
1913.0	3831.508	0.04669	75.78315	280.25	347.0	346.0
1918.0	3841.508	0.04668	75.76692	281.0	346.0	347.0
1921.0	3847.508	0.04665	75.71823	281.75	347.0	347.0
1925.0	3855.508	0.04663	75.68577	282.5	349.0	348.0
1931.0	3867.508	0.04662	75.66953	283.25	348.0	349.0
1936.0	3877.508	0.04662	75.66953	284.0	349.0	350.0
1940.0	3885.508	0.04659	75.62084	284.75	350.0	350.0
1944.0	3893.509	0.04656	75.57215	285.5	351.0	351.0
1948.0	3901.509	0.04656	75.57215	286.25	351.0	352.0
1952.0	3909.509	0.04655	75.55592	287.0	353.0	352.0
1956.0	3917.509	0.04652	75.50722	287.75	353.0	353.0
1960.0	3925.509	0.04651	75.49099	288.5	353.0	354.0
1964.0	3933.509	0.04648	75.4423	289.25	354.0	354.0
1971.0	3947.509	0.04647	75.42607	290.0	355.0	355.0
1975.0	3955.509	0.04645	75.3936	290.75	356.0	356.0
1978.0	3961.509	0.04644	75.37737	291.5	357.0	357.0
1982.0	3969.509	0.04642	75.34491	292.25	357.0	357.0
1995.0	3995.509	0.0464	75.31245	293.0	359.0	359.0
1998.0	4001.509	0.0464	75.31245	293.75	360.0	360.0
2001.0	4007.509	0.04638	75.27999	294.5	361.0	360.0
2004.0	4013.509	0.04636	75.24752	295.25	361.0	361.0
2011.0	4027.513	0.04634	75.21506	296.0	362.0	362.0
2016.0	4037.515	0.04634	75.21506	296.75	362.0	363.0
2019.0	4043.515	0.04632	75.1826	297.5	363.0	363.0
2022.0	4049.515	0.04628	75.11768	298.25	364.0	364.0
2025.0	4055.515	0.04629	75.13391	299.0	365.0	364.0
2029.0	4063.515	0.04627	75.10144	299.75	365.0	365.0
2034.0	4073.515	0.04626	75.08521	300.5	366.0	366.0
2038.0	4081.516	0.04625	75.06898	301.25	366.0	367.0
2042.0	4089.516	0.04623	75.03652	302.0	367.0	367.0
2046.0	4097.516	0.04621	75.00406	302.75	368.0	368.0
2050.0	4105.516	0.0462	74.98783	303.5	369.0	369.0
2054.0	4113.516	0.04619	74.9716	304.25	369.0	369.0
2058.0	4121.516	0.04617	74.93913	305.0	370.0	370.0
2063.0	4131.517	0.04618	74.95536	305.75	371.0	371.0
2067.0	4139.519	0.04615	74.90667	306.5	371.0	371.0
2072.0	4149.522	0.04612	74.85798	307.25	372.0	372.0
2077.0	4159.522	0.04612	74.85798	308.0	373.0	373.0
2081.0	4167.522	0.04609	74.80928	308.75	373.0	374.0
2086.0	4177.522	0.04607	74.77682	310.0	374.0	375.0
2091.0	4187.522	0.04607	74.77682	311.0	377.0	375.0
2103.0	4211.522	0.04604	74.72813	311.75	377.0	377.0
2106.0	4217.522	0.04601	74.67944	312.75	378.0	378.0
2109.0	4223.522	0.04597	74.61451	313.5	379.0	378.0
2113.0	4231.522	0.04599	74.64697	314.25	379.0	379.0
2120.0	4245.522	0.04595	74.58205	315.0	380.0	380.0
2124.0	4253.522	0.04595	74.58205	315.75	381.0	381.0
2128.0	4261.522	0.04593	74.54959	316.5	381.0	382.0
2134.0	4275.131	0.04589	74.48466	317.75	383.0	383.0
2138.0	4283.131	0.0459	74.50089	318.5	383.0	383.0
2143.0	4293.131	0.04588	74.46843	319.25	384.0	384.0
2148.0	4303.132	0.04587	74.4522	320.25	385.0	385.0
2151.0	4309.132	0.04584	74.40351	321.0	386.0	385.0
2155.0	4317.132	0.04582	74.37104	321.75	386.0	386.0
2159.0	4325.132	0.04581	74.35481	322.5	387.0	387.0
2165.0	4337.132	0.04581	74.35481	323.25	388.0	388.0
2169.0	4345.132	0.04578	74.30612	324.0	388.0	388.0
2173.0	4353.132	0.04578	74.30612	324.75	389.0	389.0
2177.0	4361.132	0.04574	74.24119	325.5	390.0	390.0
2181.0	4369.132	0.04575	74.25743	326.25	390.0	390.0
2186.0	4382.552	0.04572	74.20873	327.5	391.0	392.0
2190.0	4390.552	0.04569	74.16004	328.25	392.0	392.0
2195.0	4400.552	0.0457	74.17627	329.0	393.0	393.0
2199.0	4408.552	0.04566	74.11135	329.75	393.0	394.0
2203.0	4416.552	0.04567	74.12758	330.5	395.0	394.0
2206.0	4422.552	0.04568	74.14381	331.25	395.0	395.0
2210.0	4430.552	0.04563	74.06265	332.0	396.0	396.0
2214.0	4438.552	0.04562	74.04642	332.75	396.0	396.0
2228.0	4466.553	0.04559	73.99773	333.5	398.0	399.0
2231.0	4472.553	0.04555	73.9328	334.25	399.0	399.0
2234.0	4478.554	0.04555	73.9328	335.25	400.0	400.0
2237.0	4484.554	0.04553	73.90034	336.0	401.0	400.0
2242.0	4494.554	0.04551	73.86788	336.75	401.0	401.0
2247.0	4504.554	0.04553	73.90034	337.5	401.0	402.0
2251.0	4512.555	0.04549	73.83542	338.25	402.0	402.0
2255.0	4520.555	0.04548	73.81919	339.0	403.0	403.0
2259.0	4528.555	0.04547	73.80295	339.75	404.0	404.0
2262.0	4534.555	0.04546	73.78672	340.5	404.0	404.0
2268.0	4546.555	0.04545	73.77049	341.25	405.0	405.0
2273.0	4556.555	0.04544	73.75426	342.25	406.0	406.0
2277.0	4564.555	0.04541	73.70557	343.25	407.0	407.0
2282.0	4574.555	0.04539	73.67311	344.25	408.0	408.0
2288.0	4586.555	0.04538	73.65687	345.0	408.0	409.0
2293.0	4596.555	0.04536	73.62441	345.75	409.0	409.0
2299.0	4608.555	0.04535	73.60818	346.75	410.0	410.0
2302.0	4614.556	0.04532	73.55949	347.5	411.0	411.0
2305.0	4620.556	0.0453	73.52702	348.25	412.0	411.0
2309.0	4628.556	0.04528	73.49456	349.0	412.0	412.0
2314.0	4638.556	0.04527	73.47833	349.75	413.0	413.0
2318.0	4646.556	0.04529	73.51079	350.5	414.0	413.0
2322.0	4654.556	0.04528	73.49456	351.25	414.0	414.0
2326.0	4662.557	0.04524	73.42964	352.0	415.0	415.0
2332.0	4674.557	0.04522	73.39718	353.0	416.0	416.0
2335.0	4680.557	0.0452	73.36471	353.75	416.0	416.0
2340.0	4690.557	0.04518	73.33225	354.5	417.0	417.0
2344.0	4698.557	0.04517	73.31602	355.25	418.0	418.0
2348.0	4706.557	0.04517	73.31602	356.0	419.0	418.0
2353.0	4716.557	0.04515	73.28356	357.0	419.0	419.0
2358.0	4726.557	0.04512	73.23486	357.75	420.0	420.0
2361.0	4732.557	0.04512	73.23486	358.5	421.0	421.0
2365.0	4740.557	0.04512	73.23486	359.25	421.0	421.0
2369.0	4748.557	0.04511	73.21863	360.0	422.0	422.0
2382.0	4774.557	0.04508	73.16994	360.75	422.0	424.0
2385.0	4780.557	0.04507	73.15371	361.75	424.0	425.0
2388.0	4786.557	0.04503	73.08878	362.75	426.0	425.0
2391.0	4792.557	0.045	73.04009	363.5	426.0	426.0
2402.0	4814.557	0.04499	73.02386	364.25	427.0	427.0
2405.0	4820.557	0.04496	72.97517	365.25	428.0	428.0
2408.0	4826.557	0.04494	72.9427	366.0	429.0	428.0
2412.0	4834.557	0.04495	72.95894	366.75	429.0	429.0
2416.0	4842.557	0.04495	72.95894	367.5	430.0	430.0
2421.0	4852.557	0.04493	72.92647	368.25	431.0	431.0
2426.0	4862.557	0.04492	72.91024	369.0	431.0	431.0
2429.0	4868.557	0.04489	72.86155	369.75	432.0	432.0
2432.0	4874.557	0.04488	72.84532	370.5	432.0	432.0
2435.0	4880.557	0.04487	72.82909	371.25	433.0	433.0
2441.0	4892.557	0.04486	72.81286	372.0	434.0
2446.0	4902.557	0.04485	72.79662	372.75	434.0	435.0
2450.0	4910.557	0.04485	72.79662	373.5	435.0	435.0
2453.0	4916.557	0.04481	72.7317	374.25	436.0	436.0
2456.0	4922.557	0.04479	72.69924	375.0	436.0	436.0
2463.0	4936.557	0.04477	72.66677	376.0	438.0	438.0
2469.0	4948.557	0.04475	72.63431	376.75	438.0	439.0
2473.0	4956.557	0.04473	72.60185	377.5	439.0	439.0
2477.0	4964.557	0.04472	72.58562	378.25	440.0	440.0
2481.0	4972.557	0.0447	72.55316	379.0	440.0	441.0
2484.0	4978.557	0.04469	72.53693	379.75	441.0	441.0
2488.0	4986.557	0.0447	72.55316	380.5	442.0	442.0
2492.0	4994.557	0.04468	72.52069	381.25	442.0	442.0
2497.0	5004.557	0.04466	72.48823	382.0	443.0	443.0
2501.0	5012.557	0.04465	72.472	382.75	444.0	444.0
2505.0	5020.557	0.04462	72.42331	383.5	445.0	445.0
2509.0	5028.557	0.04462	72.42331	384.25	445.0	445.0
2514.0	5038.557	0.04461	72.40708	385.0	446.0	446.0
2517.0	5044.557	0.04459	72.37461	385.75	446.0	447.0
2521.0	5052.557	0.04459	72.37461	386.5	447.0	447.0
2524.0	5058.557	0.04457	72.34215	387.25	448.0	448.0
2528.0	5066.557	0.04456	72.32592	388.0	448.0	448.0
2533.0	5076.557	0.04455	72.30969	388.75	449.0	449.0
2538.0	5086.557	0.04453	72.27723	389.5	450.0	450.0
2543.0	5096.557	0.04449	72.2123	390.25	451.0	451.0
2546.0	5102.558	0.0445	72.22853	391.0	451.0	451.0
2550.0	5110.558	0.04448	72.19607	391.75	452.0	452.0
2554.0	5118.558	0.04446	72.16361	392.5	453.0	453.0
2558.0	5126.558	0.04447	72.17984	393.25	453.0	453.0
2562.0	5134.558	0.04443	72.11492	394.0	454.0	454.0
2567.0	5144.558	0.04441	72.08245	394.75	454.0	455.0
2571.0	5152.558	0.04439	72.04999	395.5	455.0	456.0
2574.0	5158.558	0.04437	72.01753	396.25	456.0	456.0
2577.0	5164.558	0.04436	72.0013	397.0	457.0	456.0
2582.0	5174.558	0.04438	72.03376	397.75	457.0	457.0
2587.0	5184.558	0.04438	72.03376	398.5	458.0	458.0
2591.0	5192.558	0.04437	72.01753	399.25	459.0	459.0
2596.0	5202.558	0.04435	71.98507	400.0	459.0	460.0
2610.0	5230.558	0.04431	71.92014	401.0	461.0	462.0
2614.0	5238.558	0.04427	71.85522	402.25	463.0	463.0
2619.0	5248.558	0.04424	71.80652	403.25	464.0	463.0
2626.0	5262.558	0.04424	71.80652	404.0	464.0	465.0
2631.0	5272.558	0.04421	71.75783	405.0	465.0	465.0
2634.0	5278.558	0.04421	71.75783	405.75	466.0	466.0
2639.0	5288.558	0.04416	71.67668	406.75	467.0	467.0
2644.0	5298.558	0.04417	71.69291	407.5	467.0	468.0
2648.0	5306.558	0.04416	71.67668	408.25	468.0	468.0
2651.0	5312.558	0.04412	71.61175	409.0	469.0	469.0
2654.0	5318.558	0.04412	71.61175	409.75	470.0	469.0
2659.0	5328.558	0.04411	71.59552	410.5	470.0	470.0
2664.0	5338.558	0.04411	71.59552	411.25	470.0	471.0
2668.0	5346.558	0.0441	71.57929	412.0	471.0	472.0
2671.0	5352.558	0.0441	71.57929	412.75	472.0	472.0
2675.0	5360.558	0.04408	71.54683	413.5	473.0	473.0
2680.0	5370.558	0.04406	71.51436	414.25	474.0	474.0
2685.0	5380.558	0.04405	71.49813	415.0	474.0	474.0
2689.0	5388.558	0.04403	71.46567	415.75	475.0	475.0
2693.0	5396.558	0.04401	71.43321	416.5	476.0	476.0
2697.0	5404.558	0.044	71.41698	417.25	476.0	476.0
2702.0	5414.558	0.044	71.41698	418.0	477.0	477.0
2706.0	5422.558	0.04399	71.40075	418.75	478.0	478.0
2710.0	5430.558	0.04395	71.33582	419.5	478.0	479.0
2713.0	5436.558	0.04394	71.31959	420.25	478.0	479.0
2717.0	5444.558	0.04392	71.28713	421.25	480.0	480.0
2720.0	5450.558	0.04393	71.30336	422.0	480.0	480.0
2725.0	5460.558	0.04392	71.28713	422.75	481.0	481.0
2731.0	5472.558	0.0439	71.25467	423.5	481.0	482.0
2734.0	5478.558	0.04389	71.23844	424.25	482.0	483.0
2737.0	5484.558	0.04386	71.18974	425.0	483.0	483.0
2742.0	5494.558	0.04384	71.15728	425.75	484.0	484.0
2748.0	5506.558	0.04382	71.12482	426.5	485.0	485.0
2753.0	5516.558	0.04382	71.12482	427.25	485.0	486.0
2757.0	5524.558	0.04379	71.07612	428.0	486.0	486.0
2760.0	5530.558	0.04379	71.07612	428.75	487.0	487.0
2764.0	5538.558	0.04376	71.02743	429.5	487.0	488.0
2770.0	5550.559	0.04375	71.0112	430.75	488.0	489.0
2775.0	5560.559	0.04374	70.99497	431.5	489.0	489.0
2779.0	5568.559	0.04375	71.0112	432.25	490.0	490.0
2782.0	5574.559	0.04371	70.94627	433.0	490.0	491.0
2786.0	5582.559	0.04369	70.91381	433.75	491.0	491.0
2792.0	5594.559	0.0437	70.93004	434.5	492.0	492.0
2797.0	5604.559	0.04368	70.89758	435.25	493.0	493.0
2800.0	5610.559	0.04367	70.88135	436.0	493.0	494.0
2803.0	5616.559	0.04364	70.83266	436.75	494.0	494.0
2809.0	5628.559	0.0436	70.76773	437.5	495.0	495.0
2813.0	5636.561	0.0436	70.76773	438.25	496.0	496.0
2819.0	5648.562	0.04342	70.47557	439.0	496.0	497.0
2822.0	5654.562	0.04357	70.71904	439.75	497.0	497.0
2826.0	5662.562	0.04362	70.80019	440.5	497.0	498.0
2831.0	5672.562	0.04357	70.71904	441.25	499.0	499.0
2836.0	5682.562	0.04358	70.73527	442.0	499.0	499.0
2840.0	5690.563	0.04355	70.68658	443.0	500.0	500.0
2844.0	5698.566	0.04356	70.70281	444.0	501.0	501.0
2848.0	5706.566	0.04355	70.68658	444.75	502.0	501.0
2852.0	5714.566	0.04349	70.58919	445.5	502.0	502.0
2857.0	5724.567	0.04347	70.55673	446.25	503.0	503.0
2862.0	5734.567	0.04345	70.52427	447.0	504.0	504.0
2867.0	5744.567	0.04348	70.57296	447.75	504.0	505.0
2870.0	5750.567	0.04346	70.5405	448.5	505.0	505.0
2873.0	5756.567	0.04341	70.45934	449.25	506.0	506.0
2877.0	5764.567	0.0434	70.44311	450.0	506.0	506.0
2881.0	5772.567	0.04339	70.42688	450.75	507.0	507.0
2886.0	5782.567	0.04338	70.41065	451.5	508.0	508.0
2891.0	5792.568	0.04333	70.32949	452.25	508.0	509.0
2895.0	5800.569	0.04333	70.32949	453.0	509.0	509.0
2899.0	5808.569	0.04332	70.31326	453.75	510.0	510.0
2903.0	5816.569	0.04327	70.23211	454.5	510.0	511.0
2907.0	5824.569	0.04326	70.21587	455.25	511.0	511.0
2913.0	5836.569	0.04325	70.19964	456.0	512.0	512.0
2917.0	5844.569	0.0432	70.11849	456.75	513.0	513.0
2920.0	5850.569	0.04321	70.13472	457.5	513.0	513.0
2923.0	5856.569	0.04318	70.08602	458.25	514.0	514.0
2930.0	5870.569	0.04319	70.10226	459.0	515.0	515.0
2936.0	5882.569	0.04321	70.13472	460.0	516.0	516.0
2940.0	5890.569	0.0432	70.11849	461.0	517.0	517.0
2945.0	5900.569	0.04318	70.08602	462.0	518.0	518.0
2951.0	5912.569	0.04316	70.05356	462.75	518.0	519.0
2955.0	5920.569	0.04314	70.0211	463.5	519.0	519.0
2960.0	5930.569	0.04312	69.98864	464.5	520.0	520.0
2965.0	5940.569	0.04311	69.97241	465.25	521.0	521.0
2968.0	5946.569	0.04308	69.92371	466.0	521.0	521.0
2972.0	5954.569	0.04304	69.85879	466.75	522.0	522.0
2976.0	5962.569	0.04305	69.87502	467.5	522.0	523.0
2979.0	5968.569	0.04306	69.89125	468.25	523.0	523.0
2983.0	5976.569	0.04304	69.85879	469.0	524.0	524.0
2989.0	5988.569	0.04303	69.84256	469.75	525.0	525.0
2994.0	5998.569	0.04306	69.89125	470.5	525.0	526.0
2998.0	6006.569	0.043	69.79386	471.25	526.0	526.0
3001.0	6012.569	0.04297	69.74517	472.0	527.0	527.0
3005.0	6020.569	0.04298	69.7614	472.75	527.0	528.0
3009.0	6028.569	0.04299	69.77763	473.5	528.0	528.0
3014.0	6038.569	0.043	69.79386	474.25	529.0	529.0
3019.0	6048.569	0.04296	69.72894	475.0	530.0	530.0
3023.0	6056.569	0.04295	69.71271	475.75	530.0	531.0
3026.0	6062.569	0.04296	69.72894	476.5	531.0	531.0
3031.0	6072.569	0.0429	69.63155	477.5	532.0	532.0
3036.0	6082.569	0.04293	69.68025	478.25	533.0	533.0
3043.0	6096.569	0.04293	69.68025	479.0	533.0	534.0
3047.0	6104.569	0.04292	69.66402	479.75	534.0	535.0
3050.0	6110.569	0.0429	69.63155	480.75	535.0	535.0
3054.0	6118.569	0.04288	69.59909	481.5	536.0	536.0
3060.0	6130.569	0.04286	69.56663	482.25	536.0	537.0
3063.0	6136.569	0.04285	69.5504	483.0	536.0	537.0
3067.0	6144.569	0.04282	69.5017	483.75	538.0	538.0
3071.0	6152.569	0.0428	69.46924	484.5	538.0	539.0
3075.0	6160.569	0.04281	69.48547	485.25	539.0
3080.0	6170.569	0.0428	69.46924	486.0	540.0	540.0
3085.0	6180.569	0.04278	69.43678	486.75	540.0	541.0
3088.0	6186.569	0.0428	69.46924	487.5	541.0	541.0
3092.0	6194.569	0.04279	69.45301	488.25	542.0	542.0
3097.0	6204.57	0.04281	69.48547	489.0	543.0	543.0
3102.0	6214.57	0.04276	69.40432	489.75	543.0	544.0
3109.0	6228.57	0.04277	69.42055	490.5	545.0	545.0
3113.0	6236.57	0.04275	69.38809	491.25	545.0	545.0
3116.0	6242.57	0.04275	69.38809	492.0	545.0	546.0
3119.0	6248.57	0.04272	69.33939	492.75	546.0	546.0
3122.0	6254.57	0.04269	69.2907	493.5	547.0	547.0
3127.0	6264.57	0.04271	69.32316	494.25	548.0	548.0
3133.0	6276.57	0.04269	69.2907	495.0	548.0	549.0
3136.0	6282.57	0.0427	69.30693	495.75	549.0	549.0
3140.0	6290.57	0.04267	69.25824	496.5	550.0	550.0
3145.0	6300.57	0.04268	69.27447	497.25	551.0	551.0
3150.0	6310.57	0.04265	69.22578	498.0	551.0	552.0
3155.0	6320.57	0.04264	69.20954	499.0	552.0	552.0
3160.0	6330.57	0.04262	69.17708	499.75	553.0	553.0
3164.0	6338.57	0.04262	69.17708	500.5	554.0	554.0
3169.0	6348.57	0.04261	69.16085	501.25	555.0	555.0
3172.0	6354.57	0.04262	69.17708	502.0	555.0	555.0
3178.0	6366.57	0.04262	69.17708	503.0	556.0	556.0
3182.0	6374.57	0.04261	69.16085	503.75	557.0	557.0
3186.0	6382.57	0.04257	69.09593	504.5	557.0	558.0
3191.0	6392.57	0.04253	69.031	505.25	558.0	558.0
3195.0	6400.57	0.04255	69.06346	506.0	559.0	559.0
3199.0	6408.57	0.04254	69.04723	506.75	559.0	560.0
3205.0	6420.57	0.04254	69.04723	507.5	560.0	561.0
3208.0	6426.57	0.04253	69.031	508.25	561.0	561.0
3212.0	6434.57	0.04252	69.01477	509.25	561.0	562.0
3215.0	6440.57	0.0425	68.98231	510.0	562.0	562.0
3219.0	6448.57	0.04251	68.99854	510.75	563.0	563.0
3224.0	6458.571	0.04246	68.91738	511.5	563.0	564.0
3228.0	6466.571	0.04245	68.90115	512.25	564.0	565.0
3233.0	6476.571	0.04245	68.90115	513.0	565.0	565.0
3240.0	6490.572	0.04244	68.88492	513.75	566.0	567.0
3244.0	6498.572	0.04244	68.88492	514.5	567.0	567.0
3248.0	6506.572	0.04248	68.94985	515.25	568.0	568.0
3253.0	6516.575	0.04247	68.93361	516.0	569.0	569.0
3256.0	6522.575	0.04247	68.93361	516.75	569.0	569.0
3259.0	6528.575	0.04243	68.86869	517.5	570.0	570.0
3263.0	6536.575	0.04237	68.7713	518.25	570.0	570.0
3266.0	6542.575	0.04241	68.83623	519.0	571.0	571.0
3270.0	6550.577	0.04239	68.80377	519.75	572.0	572.0
3274.0	6558.577	0.04239	68.80377	520.5	572.0	572.0
3281.0	6572.577	0.04238	68.78753	521.25	573.0	573.0
3286.0	6582.577	0.04237	68.7713	522.0	574.0	574.0
3292.0	6594.577	0.04231	68.67392	522.75	575.0	575.0
3296.0	6602.577	0.04233	68.70638	523.5	575.0	576.0
3299.0	6608.577	0.04233	68.70638	524.25	576.0	576.0
3302.0	6614.577	0.04232	68.69015	525.0	577.0	577.0
3305.0	6620.579	0.04234	68.72261	525.75	577.0	577.0
3313.0	6636.582	0.04232	68.69015	526.5	579.0	579.0
3317.0	6644.582	0.0423	68.65769	527.25	579.0	579.0
3320.0	6650.582	0.04227	68.60899	528.0	579.0	580.0
3325.0	6660.582	0.04227	68.60899	529.25	581.0	581.0
3329.0	6668.582	0.04223	68.54407	530.0	581.0	581.0
3335.0	6680.584	0.04224	68.5603	530.75	582.0	582.0
3340.0	6690.585	0.04225	68.57653	531.75	583.0	583.0
3344.0	6698.585	0.04224	68.5603	532.5	584.0	584.0
3350.0	6710.585	0.04221	68.51161	533.25	585.0	585.0
3356.0	6722.585	0.04219	68.47914	534.0	585.0	586.0
3359.0	6728.585	0.0422	68.49537	534.75	586.0	586.0
3363.0	6736.585	0.04217	68.44668	535.5	587.0	587.0
3367.0	6744.585	0.04218	68.46291	536.25	587.0	588.0
3373.0	6756.585	0.04215	68.41422	537.0	588.0	589.0
3378.0	6766.586	0.04215	68.41422	537.75	589.0	589.0
3382.0	6774.586	0.04214	68.39799	538.5	590.0	590.0
3385.0	6780.586	0.04211	68.34929	539.25	591.0	591.0
3389.0	6788.586	0.0421	68.33306	540.0	591.0	591.0
3394.0	6798.586	0.04213	68.38176	540.75	592.0	592.0
3399.0	6808.586	0.04211	68.34929	541.5	593.0	593.0
3403.0	6816.586	0.04208	68.3006	542.25	593.0	594.0
3406.0	6822.586	0.04209	68.31683	543.0	594.0	594.0
3410.0	6830.586	0.0421	68.33306	543.75	595.0	595.0
3416.0	6842.586	0.04211	68.34929	544.5	596.0	596.0
3423.0	6856.586	0.04212	68.36553	545.25	596.0	597.0
3426.0	6862.586	0.04212	68.36553	546.0	597.0	597.0
3429.0	6868.586	0.04212	68.36553	547.0	598.0	598.0
3432.0	6874.586	0.04214	68.39799	547.75	599.0	598.0
3439.0	6888.586	0.04213	68.38176	548.5	599.0	600.0
3442.0	6894.586	0.04212	68.36553	549.25	599.0	600.0
3445.0	6900.587	0.0421	68.33306	550.25	600.0	601.0
3448.0	6906.587	0.04208	68.3006	551.5	601.0	601.0
3451.0	6912.587	0.0421	68.33306	552.5	602.0	602.0
3456.0	6922.587	0.04203	68.21944	553.25	602.0	602.0
3463.0	6936.587	0.04201	68.18698	554.0	603.0	604.0
3467.0	6944.587	0.042	68.17075	554.75	604.0	604.0
3471.0	6952.587	0.042	68.17075	555.5	604.0	605.0
3477.0	6964.591	0.04203	68.21944	556.25	605.0	606.0
3481.0	6972.592	0.04204	68.23568	557.0	606.0	607.0
3487.0	6984.592	0.04201	68.18698	557.75	608.0	608.0
3493.0	6996.592	0.04202	68.20321	558.5	608.0	609.0
3497.0	7004.593	0.04202	68.20321	559.25	609.0	609.0
3501.0	7012.593	0.04198	68.13829	560.25	610.0	610.0
3505.0	7020.593	0.04196	68.10583	561.0	611.0	611.0
3509.0	7028.593	0.04197	68.12206	561.75	611.0	611.0
3514.0	7038.593	0.04193	68.05713	562.5	612.0	612.0
3520.0	7050.593	0.04193	68.05713	563.25	613.0	613.0
3526.0	7062.593	0.04197	68.12206	564.0	614.0	614.0
3529.0	7068.593	0.04198	68.13829	564.75	614.0	615.0
3532.0	7074.595	0.04195	68.0896	565.5	615.0	615.0
3536.0	7082.598	0.04195	68.0896	566.5	616.0	616.0
3543.0	7096.6	0.04189	67.99221	567.25	616.0	617.0
3547.0	7104.601	0.0419	68.00844	568.0	617.0	618.0
3550.0	7110.601	0.04189	67.99221	568.75	618.0	618.0
3555.0	7120.601	0.04189	67.99221	569.5	618.0	619.0
3561.0	7132.601	0.04186	67.94352	570.25	620.0	620.0
3564.0	7138.601	0.04185	67.92728	571.0	620.0	620.0
3568.0	7146.602	0.04189	67.99221	571.75	621.0	621.0
3572.0	7154.602	0.04187	67.95975	572.75	622.0	622.0
3578.0	7166.603	0.04183	67.89482	573.5	623.0	623.0
3583.0	7176.603	0.04186	67.94352	574.25	623.0	624.0
3587.0	7184.603	0.04188	67.97598	575.0	624.0	624.0
3592.0	7194.603	0.04185	67.92728	575.75	625.0	625.0
3595.0	7200.603	0.04185	67.92728	576.5	626.0	626.0
3599.0	7208.603	0.04183	67.89482	577.25	626.0	626.0
3604.0	7218.603	0.0418	67.84613	578.0	627.0	627.0
3610.0	7230.603	0.04182	67.87859	579.0	628.0	628.0
3617.0	7244.603	0.04183	67.89482	579.75	628.0	629.0
3621.0	7252.603	0.04179	67.8299	580.75	630.0	630.0
3624.0	7258.603	0.04182	67.87859	581.5	630.0	630.0
3627.0	7264.603	0.04177	67.79744	582.25	631.0	631.0
3633.0	7276.603	0.04171	67.70005	583.0	632.0	632.0
3639.0	7288.603	0.04171	67.70005	583.75	632.0	633.0
3643.0	7296.603	0.0417	67.68382	584.5	633.0	633.0
3647.0	7304.603	0.04167	67.63512	585.25	634.0	634.0
3651.0	7312.603	0.04172	67.71628	586.0	634.0	635.0
3657.0	7324.603	0.04172	67.71628	586.75	636.0	636.0
3661.0	7332.603	0.04172	67.71628	587.5	637.0	636.0
3665.0	7340.603	0.04168	67.65136	588.25	637.0	637.0
3672.0	7354.603	0.04156	67.45658	589.0	638.0	638.0
3676.0	7362.603	0.04153	67.40789	589.75	639.0	639.0
3680.0	7370.603	0.04151	67.37543	590.5	639.0	640.0
3685.0	7380.603	0.0416	67.52151	591.25	640.0	640.0
3690.0	7390.603	0.04154	67.42412	592.25	641.0	641.0
3694.0	7398.603	0.0415	67.35919	593.0	642.0	642.0
3699.0	7408.603	0.04157	67.47281	593.75	643.0	643.0
3705.0	7420.603	0.04158	67.48904	594.5	643.0	644.0
3708.0	7426.603	0.0416	67.52151	595.5	643.0	644.0
3711.0	7432.603	0.04163	67.5702	596.75	644.0	645.0
3714.0	7438.603	0.04154	67.42412	598.0	645.0	645.0
3717.0	7444.603	0.04131	67.0508	598.75	646.0	646.0
3726.0	7462.603	0.04157	67.47281	599.5	647.0	647.0
3731.0	7472.603	0.04148	67.32673	600.25	648.0	648.0
3735.0	7480.603	0.04149	67.34296	601.0	649.0	649.0
3741.0	7492.603	0.04157	67.47281	601.75	650.0	650.0
3746.0	7502.603	0.04161	67.53774	602.5	650.0	651.0
3751.0	7512.603	0.04168	67.65136	603.25	652.0	651.0
3759.0	7528.605	0.04161	67.53774	604.0	652.0	653.0
3763.0	7536.605	0.04156	67.45658	604.75	653.0	653.0
3766.0	7542.605	0.04152	67.39166	605.75	654.0	654.0
3771.0	7552.605	0.04153	67.40789	606.75	655.0	655.0
3778.0	7566.605	0.04155	67.44035	607.5	655.0	656.0
3782.0	7574.605	0.04149	67.34296	608.25	657.0	657.0
3789.0	7588.605	0.04157	67.47281	609.0	657.0	658.0
3792.0	7594.605	0.04157	67.47281	609.75	657.0	658.0
3795.0	7600.605	0.04158	67.48904	610.5	659.0	659.0
3798.0	7606.605	0.04159	67.50528	611.25	660.0	659.0
3805.0	7620.605	0.04152	67.39166	612.0	660.0	660.0
3811.0	7632.605	0.04146	67.29427	612.75	661.0	661.0
3816.0	7642.606	0.04143	67.24558	613.5	662.0	662.0
3819.0	7648.606	0.04141	67.21311	614.25	663.0	663.0
3824.0	7658.606	0.04147	67.3105	615.0	663.0	664.0
3828.0	7666.606	0.04149	67.34296	616.0	665.0	664.0
3832.0	7674.606	0.04153	67.40789	616.75	665.0	665.0
3837.0	7684.606	0.04151	67.37543	617.5	665.0	666.0
3844.0	7698.606	0.0415	67.35919	618.25	666.0	667.0
3850.0	7710.606	0.04152	67.39166	619.25	668.0	668.0
3854.0	7718.606	0.04155	67.44035	620.0	668.0	669.0
3860.0	7730.606	0.04148	67.32673	620.75	669.0	669.0
3863.0	7736.606	0.04148	67.32673	621.5	669.0	670.0
3867.0	7744.606	0.04146	67.29427	622.5	670.0	671.0
3872.0	7754.606	0.04142	67.22935	623.25	671.0	671.0
3875.0	7760.606	0.04134	67.0995	624.0	671.0	672.0
3878.0	7766.606	0.0413	67.03457	625.0	671.0	672.0
3882.0	7774.606	0.04129	67.01834	626.25	673.0	673.0
3885.0	7780.606	0.04137	67.14819	627.0	674.0	674.0
3889.0	7788.606	0.04139	67.18065	627.75	674.0	674.0
3897.0	7804.606	0.04149	67.34296	628.5	675.0	676.0
3903.0	7816.607	0.04143	67.24558	629.25	676.0	677.0
3907.0	7824.607	0.0415	67.35919	630.0	677.0	677.0
3911.0	7832.607	0.04143	67.24558	630.75	678.0	678.0
3915.0	7840.607	0.04136	67.13196	631.5	679.0	679.0
3923.0	7856.607	0.0413	67.03457	632.25	680.0	680.0
3927.0	7864.607	0.04133	67.08327	633.0	680.0	681.0
3930.0	7870.607	0.04137	67.14819	633.75	681.0	681.0
3934.0	7878.607	0.04145	67.27804	634.5	682.0	682.0
3939.0	7888.607	0.04155	67.44035	635.25	682.0	683.0
3947.0	7904.607	0.04143	67.24558	636.0	684.0	684.0
3951.0	7912.607	0.04136	67.13196	636.75	684.0	685.0
3954.0	7918.607	0.04134	67.0995	637.5	685.0	685.0
3959.0	7928.607	0.04132	67.06703	638.25	685.0	686.0
3965.0	7940.607	0.04138	67.16442	639.0	686.0	687.0
3969.0	7948.607	0.04137	67.14819	639.75	687.0	688.0
3974.0	7958.607	0.04134	67.0995	640.5	688.0	688.0
3979.0	7968.607	0.04135	67.11573	641.25	689.0	689.0
3983.0	7976.607	0.04135	67.11573	642.0	689.0	690.0
3987.0	7984.607	0.04129	67.01834	643.0	690.0	691.0
3990.0	7990.607	0.04127	66.98588	643.75	691.0	691.0
3995.0	8000.607	0.04122	66.90472	644.5	692.0	692.0
4006.0	8022.607	0.04125	66.95342	645.25	692.0	694.0
4009.0	8028.607	0.04129	67.01834	646.25	693.0	694.0
4012.0	8034.607	0.04132	67.06703	648.0	694.0	695.0
4015.0	8040.607	0.04132	67.06703	649.5	695.0	695.0
4027.0	8064.607	0.04135	67.11573	650.25	697.0	697.0
4030.0	8070.607	0.04132	67.06703	651.0	697.0	698.0
4033.0	8076.607	0.04055	65.81724	652.0	699.0	698.0
4039.0	8095.338	0.04129	67.01834	653.0	700.0	700.0
4051.0	8119.338	0.0414	67.19688	654.0	700.0	702.0
4055.0	8127.338	0.04144	67.26181	655.25	702.0	702.0
4058.0	8133.338	0.04142	67.22935	656.0	703.0	703.0
4071.0	8159.339	0.04132	67.06703	656.75	705.0	705.0
4074.0	8165.339	0.04128	67.00211	657.5	705.0	706.0
4077.0	8171.339	0.04133	67.08327	658.5	705.0	706.0
4080.0	8177.339	0.04139	67.18065	659.25	707.0	707.0
4084.0	8185.339	0.04138	67.16442	660.0	708.0	707.0
4097.0	8211.339	0.04131	67.0508	661.0	708.0	709.0
4101.0	8219.339	0.04133	67.08327	662.25	709.0	710.0
4104.0	8225.339	0.0413	67.03457	663.0	711.0	711.0
4107.0	8231.339	0.04119	66.85603	663.75	711.0	711.0
4118.0	8253.34	0.04128	67.00211	664.5	712.0	713.0
4121.0	8259.34	0.04127	66.98588	665.25	712.0	713.0
4124.0	8265.34	0.04131	67.0508	666.75	713.0	714.0
4127.0	8271.34	0.04132	67.06703	668.0	713.0	714.0
4130.0	8277.34	0.04129	67.01834	668.75	716.0	715.0
4138.0	8293.34	0.04128	67.00211	669.5	716.0	716.0
4142.0	8301.34	0.04132	67.06703	670.5	717.0	717.0
4145.0	8307.34	0.04132	67.06703	671.25	717.0	717.0
4158.0	8333.34	0.04133	67.08327	672.0	718.0	720.0
4162.0	8341.34	0.04129	67.01834	673.0	719.0	720.0
4166.0	8349.34	0.0412	66.87226	674.25	720.0	721.0
4170.0	8357.341	0.04124	66.93719	675.0	722.0	722.0
4183.0	8383.344	0.0413	67.03457	676.0	723.0	724.0
4186.0	8389.344	0.0412	66.87226	677.5	723.0	724.0
4189.0	8395.344	0.04128	67.00211	678.5	725.0	725.0
4200.0	8417.344	0.04127	66.98588	679.25	725.0	727.0
4205.0	8427.344	0.04121	66.88849	680.0	727.0	727.0
4209.0	8435.345	0.0412	66.87226	680.75	727.0	728.0
4213.0	8443.345	0.04127	66.98588	681.5	728.0	729.0
4218.0	8453.346	0.04132	67.06703	682.25	729.0	729.0
4221.0	8459.346	0.04126	66.96965	683.25	729.0	730.0
4224.0	8465.346	0.04125	66.95342	684.25	730.0	730.0
4227.0	8471.346	0.04123	66.92095	685.25	731.0	731.0
4235.0	8487.346	0.04127	66.98588	686.0	732.0	732.0
4244.0	8505.346	0.04116	66.80734	686.75	734.0	734.0
4247.0	8511.346	0.0412	66.87226	687.5	733.0	734.0
4250.0	8517.346	0.0412	66.87226	688.5	734.0	735.0
4254.0	8525.346	0.04118	66.8398	689.5	735.0	735.0
4261.0	8539.346	0.04122	66.90472	690.25	736.0	737.0
4270.0	8557.346	0.04114	66.77487	691.0	737.0	738.0
4273.0	8563.346	0.04106	66.64503	691.75	737.0	739.0
4276.0	8569.346	0.0411	66.70995	693.0	739.0	739.0
4280.0	8577.346	0.04112	66.74241	693.75	740.0	740.0
4295.0	8607.347	0.04121	66.88849	694.5	742.0	742.0
4298.0	8613.347	0.04121	66.88849	695.5	742.0	743.0
4301.0	8619.347	0.04121	66.88849	696.5	743.0	743.0
4309.0	8635.347	0.0411	66.70995	697.5	744.0	745.0
4313.0	8643.349	0.04113	66.75864	698.75	744.0	745.0
4316.0	8649.35	0.04114	66.77487	699.75	745.0	746.0
4319.0	8655.35	0.04116	66.80734	700.75	745.0	746.0
4323.0	8663.35	0.0412	66.87226	701.75	746.0	747.0
4329.0	8675.35	0.04119	66.85603	702.5	748.0	748.0
4340.0	8697.35	0.04121	66.88849	703.25	750.0	750.0
4344.0	8705.35	0.04122	66.90472	704.0	750.0	750.0
4347.0	8711.35	0.04116	66.80734	704.75	751.0	751.0
4354.0	8725.35	0.04117	66.82357	705.5	752.0	752.0
4361.0	8739.35	0.04114	66.77487	706.25	754.0	753.0
4369.0	8755.35	0.04105	66.62879	707.0	754.0	755.0
4372.0	8761.35	0.04096	66.48271	707.75	754.0	755.0
4376.0	8769.35	0.04097	66.49894	708.75	755.0	756.0
4379.0	8775.35	0.04103	66.59633	709.75	757.0	756.0
4386.0	8789.35	0.04097	66.49894	710.5	757.0	757.0
4394.0	8805.35	0.04103	66.59633	711.5	758.0	759.0
4398.0	8813.35	0.04097	66.49894	712.75	758.0	759.0
4401.0	8819.35	0.04099	66.53141	714.0	759.0	760.0
4404.0	8825.35	0.04108	66.67749	715.25	760.0	760.0
4408.0	8833.35	0.04113	66.75864	716.0	761.0	761.0
4419.0	8855.35	0.0411	66.70995	716.75	763.0	763.0
4425.0	8867.35	0.04111	66.72618	717.5	764.0	764.0
4428.0	8873.35	0.04111	66.72618	718.25	764.0	764.0
4439.0	8895.35	0.041	66.54764	719.0	766.0	766.0
4444.0	8905.35	0.04093	66.43402	719.75	767.0	767.0
4448.0	8913.35	0.04091	66.40156	720.5	767.0	768.0
4452.0	8921.35	0.041	66.54764	721.5	768.0	768.0
4458.0	8933.35	0.04107	66.66126	722.25	769.0	769.0
4465.0	8947.351	0.04103	66.59633	723.0	771.0	770.0
4470.0	8957.351	0.04102	66.5801	724.25	770.0	771.0
4474.0	8965.351	0.04103	66.59633	725.0	772.0	772.0
4479.0	8975.351	0.04103	66.59633	725.75	772.0	773.0
4482.0	8981.351	0.04112	66.74241	726.75	773.0	773.0
4485.0	8987.351	0.04115	66.79111	727.75	774.0	774.0
4488.0	8993.351	0.04115	66.79111	728.5	774.0	774.0
4497.0	9011.351	0.04115	66.79111	729.5	775.0	776.0
4500.0	9017.351	0.04112	66.74241	730.5	776.0	776.0
4506.0	9029.351	0.04107	66.66126	731.25	778.0	777.0
4513.0	9043.351	0.04112	66.74241	732.0	778.0	778.0
4518.0	9053.351	0.04109	66.69372	732.75	779.0	779.0
4523.0	9063.351	0.04111	66.72618	733.5	780.0	780.0
4529.0	9075.351	0.04116	66.80734	734.25	781.0	781.0
4535.0	9087.351	0.04111	66.72618	735.0	781.0	782.0
4540.0	9097.351	0.04109	66.69372	735.75	783.0	783.0
4545.0	9107.352	0.0411	66.70995	736.5	784.0	784.0
4550.0	9117.352	0.04105	66.62879	737.25	784.0	785.0
4553.0	9123.352	0.04104	66.61256	738.25	784.0	785.0
4556.0	9129.352	0.04108	66.67749	739.25	785.0	786.0
4559.0	9135.352	0.04111	66.72618	740.25	786.0	786.0
4563.0	9143.352	0.0411	66.70995	741.0	787.0	787.0
4576.0	9169.356	0.0411	66.70995	741.75	788.0	789.0
4580.0	9177.356	0.04108	66.67749	742.5	789.0	790.0
4583.0	9183.356	0.0411	66.70995	743.5	790.0	790.0
4586.0	9189.357	0.04113	66.75864	744.25	791.0	791.0
4598.0	9213.36	0.04107	66.66126	745.25	792.0	793.0
4602.0	9221.361	0.04102	66.5801	746.0	793.0	793.0
4605.0	9227.361	0.04107	66.66126	746.75	793.0	794.0
4613.0	9243.361	0.04111	66.72618	747.5	795.0	795.0
4620.0	9257.361	0.04104	66.61256	748.25	796.0	796.0
4624.0	9265.361	0.04104	66.61256	749.0	796.0	797.0
4627.0	9271.361	0.04096	66.48271	750.25	797.0	797.0
4630.0	9277.361	0.04104	66.61256	751.75	797.0	798.0
4634.0	9285.361	0.04094	66.45025	753.0	799.0	799.0
4648.0	9313.361	0.0411	66.70995	753.75	800.0	801.0
4651.0	9319.361	0.04108	66.67749	754.5	801.0	801.0
4655.0	9327.361	0.04098	66.51518	755.25	802.0	802.0
4662.0	9341.361	0.04089	66.3691	756.0	803.0	803.0
4669.0	9355.361	0.04091	66.40156	756.75	804.0	804.0
4674.0	9365.361	0.04094	66.45025	757.5	805.0	805.0
4679.0	9375.361	0.04105	66.62879	758.25	806.0	806.0
4689.0	9395.361	0.04098	66.51518	759.0	807.0	808.0
4692.0	9401.361	0.041	66.54764	759.75	807.0	808.0
4695.0	9407.361	0.04095	66.46648	761.0	807.0	809.0
4698.0	9413.361	0.04098	66.51518	762.25	809.0	809.0
4701.0	9419.361	0.04096	66.48271	763.25	810.0	810.0
4708.0	9433.362	0.04096	66.48271	764.0	810.0	811.0
4715.0	9447.362	0.04086	66.3204	764.75	812.0	812.0
4719.0	9455.363	0.04084	66.28794	765.5	813.0	813.0
4728.0	9473.364	0.04097	66.49894	766.25	814.0	814.0
4732.0	9481.364	0.04096	66.48271	767.0	816.0	815.0
4742.0	9501.364	0.04099	66.53141	767.75	816.0	816.0
4745.0	9507.364	0.04101	66.56387	768.5	816.0	817.0
4749.0	9515.364	0.04105	66.62879	769.5	818.0	818.0
4755.0	9527.364	0.0411	66.70995	770.5	818.0	819.0
4758.0	9533.364	0.04116	66.80734	771.5	818.0	819.0
4761.0	9539.364	0.04111	66.72618	772.75	818.0	820.0
4765.0	9547.364	0.04118	66.8398	773.5	821.0	820.0
4770.0	9557.364	0.04116	66.80734	774.25	821.0	821.0
4777.0	9571.364	0.04126	66.96965	775.0	822.0	822.0
4782.0	9581.364	0.04097	66.49894	775.75	823.0	823.0
4790.0	9597.364	0.04101	66.56387	776.5	825.0	824.0
4802.0	9621.364	0.04105	66.62879	777.25	826.0	826.0
4805.0	9627.364	0.04107	66.66126	778.25	826.0	827.0
4808.0	9633.364	0.04112	66.74241	779.25	827.0	827.0
4811.0	9639.364	0.04117	66.82357	780.0	828.0	828.0
4816.0	9649.367	0.04117	66.82357	780.75	828.0	829.0
4819.0	9655.367	0.04112	66.74241	781.5	829.0	829.0
4822.0	9661.367	0.04124	66.93719	782.5	829.0	830.0
4826.0	9669.367	0.04116	66.80734	783.5	830.0	830.0
4840.0	9697.367	0.04114	66.77487	784.25	831.0	833.0
4843.0	9703.367	0.04115	66.79111	785.5	833.0	833.0
4846.0	9709.367	0.04133	67.08327	786.5	833.0	834.0
4859.0	9735.368	0.04111	66.72618	787.25	836.0	836.0
4863.0	9743.368	0.04109	66.69372	788.0	837.0	837.0
4870.0	9757.925	0.04122	66.90472	788.75	837.0	838.0
4873.0	9763.925	0.04121	66.88849	789.75	838.0	838.0
4876.0	9769.925	0.04102	66.5801	790.5	839.0	839.0
4879.0	9775.925	0.04107	66.66126	791.25	839.0	839.0
4882.0	9781.925	0.04111	66.72618	792.0	840.0	840.0
4885.0	9787.925	0.04112	66.74241	792.75	841.0	840.0
4891.0	9799.926	0.04106	66.64503	793.5	841.0	841.0
4900.0	9817.926	0.04101	66.56387	794.25	842.0	843.0
4905.0	9827.926	0.04106	66.64503	795.0	842.0	844.0
4908.0	9833.926	0.04099	66.53141	796.0	844.0	844.0
4912.0	9841.926	0.04104	66.61256	796.75	845.0	845.0
4927.0	9871.927	0.04112	66.74241	797.75	846.0	847.0
4931.0	9879.927	0.04094	66.45025	798.5	848.0	848.0
4936.0	9889.927	0.04109	66.69372	799.25	848.0	849.0
4939.0	9895.927	0.04104	66.61256	800.5	848.0	849.0
4942.0	9901.927	0.04098	66.51518	801.75	851.0	850.0
4945.0	9907.927	0.04102	66.5801	802.75	851.0	850.0
4961.0	9941.289	0.04089	66.3691	803.75	852.0	853.0
4966.0	9951.29	0.04098	66.51518	804.5	853.0	854.0
4970.0	9959.29	0.04107	66.66126	805.25	854.0	854.0
4974.0	9967.291	0.04093	66.43402	806.0	855.0	855.0
4986.0	9991.291	0.04095	66.46648	806.75	856.0	857.0
4990.0	9999.291	0.04087	66.33663	807.75	857.0	858.0
4993.0	10005.291	0.0409	66.38533	808.5	857.0	858.0
4996.0	10011.291	0.04093	66.43402	809.5	858.0	859.0
4999.0	10017.291	0.04093	66.43402	810.5	859.0	859.0
5004.0	10027.291	0.04112	66.74241	811.25	860.0	860.0
5008.0	10035.291	0.04101	66.56387	812.0	861.0	861.0
5021.0	10061.291	0.04095	66.46648	812.75	863.0	863.0
5024.0	10067.291	0.04102	66.5801	813.5	862.0	863.0
5029.0	10077.291	0.04093	66.43402	814.25	864.0	864.0
5034.0	10087.291	0.04094	66.45025	815.0	865.0	865.0
5038.0	10095.291	0.04105	66.62879	815.75	865.0	866.0
5043.0	10105.291	0.04121	66.88849	816.5	866.0	867.0
5047.0	10113.291	0.04106	66.64503	817.5	867.0	867.0
5052.0	10123.291	0.04092	66.41779	819.0	867.0	868.0
5056.0	10131.291	0.04089	66.3691	820.25	868.0	869.0
5071.0	10161.291	0.0409	66.38533	820.75	871.0	871.0
5074.0	10167.291	0.04089	66.3691	821.5	871.0	872.0
5085.0	10193.585	0.04095	66.46648	822.25	873.0	874.0
5088.0	10199.585	0.04101	66.56387	823.5	874.0	874.0
5091.0	10205.585	0.04098	66.51518	824.5	874.0	875.0
5094.0	10211.585	0.04101	66.56387	825.25	876.0	875.0
5098.0	10219.585	0.04109	66.69372	826.25	875.0	876.0
5101.0	10225.585	0.04092	66.41779	827.25	877.0	877.0
5115.0	10253.585	0.04097	66.49894	828.0	878.0	879.0
5120.0	10263.585	0.04098	66.51518	828.75	880.0	880.0
5130.0	10283.585	0.04084	66.28794	829.5	881.0	881.0
5133.0	10289.585	0.04078	66.19055	831.0	881.0	882.0
5136.0	10295.585	0.0409	66.38533	832.0	883.0	882.0
5150.0	10323.585	0.04091	66.40156	832.75	884.0	885.0
5153.0	10329.585	0.04098	66.51518	833.75	885.0	885.0
5156.0	10335.585	0.04089	66.3691	835.0	884.0	886.0
5159.0	10341.585	0.04084	66.28794	836.5	886.0	886.0
5174.0	10371.586	0.04091	66.40156	837.25	889.0	889.0
5181.0	10385.586	0.04097	66.49894	838.0	889.0	890.0
5184.0	10391.586	0.04083	66.27171	838.75	891.0	890.0
5188.0	10399.586	0.04085	66.30417	839.75	891.0	891.0
5199.0	10421.586	0.04086	66.3204	840.5	892.0	893.0
5202.0	10427.586	0.04095	66.46648	841.5	892.0	893.0
5205.0	10433.586	0.04097	66.49894	842.75	894.0	894.0
5209.0	10441.586	0.04102	66.5801	843.75	895.0	895.0
5222.0	10467.59	0.04088	66.35286	844.5	896.0	897.0
5225.0	10473.592	0.04088	66.35286	846.0	897.0	897.0
5237.0	10497.596	0.04078	66.19055	846.75	898.0	899.0
5242.0	10507.599	0.04082	66.25548	847.5	899.0	900.0
5243.0	10509.599	0.04084	66.28794	847.75	899.0	900.0